subject,trialCount,trialAttempt,RT,nCorrect,slot0Acc,slot0CurrentType,slot0CorrectType,slot0CurrentSRC,slot0CorrectSRC,slot1Acc,slot1CurrentType,slot1CorrectType,slot1CurrentSRC,slot1CorrectSRC,slot2Acc,slot2CurrentType,slot2CorrectType,slot2CurrentSRC,slot2CorrectSRC,slot3Acc,slot3CurrentType,slot3CorrectType,slot3CurrentSRC,slot3CorrectSRC,slot4Acc,slot4CurrentType,slot4CorrectType,slot4CurrentSRC,slot4CorrectSRC,slot5Acc,slot5CurrentType,slot5CorrectType,slot5CurrentSRC,slot5CorrectSRC,slot6Acc,slot6CurrentType,slot6CorrectType,slot6CurrentSRC,slot6CorrectSRC,slot7Acc,slot7CurrentType,slot7CorrectType,slot7CurrentSRC,slot7CorrectSRC,slot8Acc,slot8CurrentType,slot8CorrectType,slot8CurrentSRC,slot8CorrectSRC,slot9Acc,slot9CurrentType,slot9CorrectType,slot9CurrentSRC,slot9CorrectSRC
a2ctbahecdqsix,1,1,48660,1,0,neutral,threat,picture5.jpg,picture2.jpg,0,threat,neutral,picture2.jpg,picture7.jpg,0,neutral,neutral,picture7.jpg,picture3.jpg,1,threat,threat,picture3.jpg,picture3.jpg,0,neutral,neutral,picture9.jpg,picture6.jpg,0,neutral,neutral,picture4.jpg,picture9.jpg,0,neutral,threat,picture3.jpg,picture1.jpg,0,threat,neutral,picture4.jpg,picture5.jpg,0,neutral,neutral,picture6.jpg,picture4.jpg,0,threat,threat,picture1.jpg,picture4.jpg
a2ctbahecdqsix,1,2,63795,2,1,threat,threat,picture2.jpg,picture2.jpg,0,threat,neutral,picture1.jpg,picture7.jpg,0,neutral,neutral,picture9.jpg,picture3.jpg,1,threat,threat,picture3.jpg,picture3.jpg,0,neutral,neutral,picture7.jpg,picture6.jpg,0,neutral,neutral,picture5.jpg,picture9.jpg,0,neutral,threat,picture4.jpg,picture1.jpg,0,threat,neutral,picture4.jpg,picture5.jpg,0,neutral,neutral,picture3.jpg,picture4.jpg,0,neutral,threat,picture6.jpg,picture4.jpg
a2ctbahecdqsix,1,3,70411,3,1,threat,threat,picture2.jpg,picture2.jpg,0,threat,neutral,picture1.jpg,picture7.jpg,0,neutral,neutral,picture9.jpg,picture3.jpg,1,threat,threat,picture3.jpg,picture3.jpg,1,neutral,neutral,picture6.jpg,picture6.jpg,0,neutral,neutral,picture5.jpg,picture9.jpg,0,neutral,threat,picture7.jpg,picture1.jpg,0,threat,neutral,picture4.jpg,picture5.jpg,0,neutral,neutral,picture3.jpg,picture4.jpg,0,neutral,threat,picture4.jpg,picture4.jpg
a2ctbahecdqsix,1,4,74251,3,1,threat,threat,picture2.jpg,picture2.jpg,0,threat,neutral,picture1.jpg,picture7.jpg,0,neutral,neutral,picture9.jpg,picture3.jpg,1,threat,threat,picture3.jpg,picture3.jpg,1,neutral,neutral,picture6.jpg,picture6.jpg,0,neutral,neutral,picture5.jpg,picture9.jpg,0,neutral,threat,picture4.jpg,picture1.jpg,0,threat,neutral,picture4.jpg,picture5.jpg,0,neutral,neutral,picture3.jpg,picture4.jpg,0,neutral,threat,picture7.jpg,picture4.jpg
a2ctbahecdqsix,1,5,79499,4,1,threat,threat,picture2.jpg,picture2.jpg,0,threat,neutral,picture1.jpg,picture7.jpg,0,neutral,neutral,picture9.jpg,picture3.jpg,1,threat,threat,picture3.jpg,picture3.jpg,1,neutral,neutral,picture6.jpg,picture6.jpg,0,threat,neutral,picture4.jpg,picture9.jpg,0,neutral,threat,picture4.jpg,picture1.jpg,1,neutral,neutral,picture5.jpg,picture5.jpg,0,neutral,neutral,picture7.jpg,picture4.jpg,0,neutral,threat,picture3.jpg,picture4.jpg
a2ctbahecdqsix,1,6,83211,4,1,threat,threat,picture2.jpg,picture2.jpg,0,threat,neutral,picture1.jpg,picture7.jpg,0,neutral,neutral,picture9.jpg,picture3.jpg,1,threat,threat,picture3.jpg,picture3.jpg,1,neutral,neutral,picture6.jpg,picture6.jpg,0,neutral,neutral,picture7.jpg,picture9.jpg,0,neutral,threat,picture4.jpg,picture1.jpg,1,neutral,neutral,picture5.jpg,picture5.jpg,0,threat,neutral,picture4.jpg,picture4.jpg,0,neutral,threat,picture3.jpg,picture4.jpg
a2ctbahecdqsix,1,7,88290,5,1,threat,threat,picture2.jpg,picture2.jpg,1,neutral,neutral,picture7.jpg,picture7.jpg,0,neutral,neutral,picture9.jpg,picture3.jpg,1,threat,threat,picture3.jpg,picture3.jpg,1,neutral,neutral,picture6.jpg,picture6.jpg,0,threat,neutral,picture1.jpg,picture9.jpg,0,neutral,threat,picture4.jpg,picture1.jpg,1,neutral,neutral,picture5.jpg,picture5.jpg,0,threat,neutral,picture4.jpg,picture4.jpg,0,neutral,threat,picture3.jpg,picture4.jpg
a2ctbahecdqsix,1,8,91931,6,1,threat,threat,picture2.jpg,picture2.jpg,1,neutral,neutral,picture7.jpg,picture7.jpg,1,neutral,neutral,picture3.jpg,picture3.jpg,1,threat,threat,picture3.jpg,picture3.jpg,1,neutral,neutral,picture6.jpg,picture6.jpg,0,threat,neutral,picture1.jpg,picture9.jpg,0,neutral,threat,picture4.jpg,picture1.jpg,1,neutral,neutral,picture5.jpg,picture5.jpg,0,threat,neutral,picture4.jpg,picture4.jpg,0,neutral,threat,picture9.jpg,picture4.jpg
a2ctbahecdqsix,1,9,96970,6,1,threat,threat,picture2.jpg,picture2.jpg,1,neutral,neutral,picture7.jpg,picture7.jpg,1,neutral,neutral,picture3.jpg,picture3.jpg,1,threat,threat,picture3.jpg,picture3.jpg,1,neutral,neutral,picture6.jpg,picture6.jpg,0,threat,neutral,picture1.jpg,picture9.jpg,0,neutral,threat,picture4.jpg,picture1.jpg,1,neutral,neutral,picture5.jpg,picture5.jpg,0,threat,neutral,picture4.jpg,picture4.jpg,0,neutral,threat,picture9.jpg,picture4.jpg
a2ctbahecdqsix,1,10,101810,7,1,threat,threat,picture2.jpg,picture2.jpg,1,neutral,neutral,picture7.jpg,picture7.jpg,1,neutral,neutral,picture3.jpg,picture3.jpg,1,threat,threat,picture3.jpg,picture3.jpg,1,neutral,neutral,picture6.jpg,picture6.jpg,1,neutral,neutral,picture9.jpg,picture9.jpg,0,neutral,threat,picture4.jpg,picture1.jpg,1,neutral,neutral,picture5.jpg,picture5.jpg,0,threat,neutral,picture4.jpg,picture4.jpg,0,threat,threat,picture1.jpg,picture4.jpg
a2ctbahecdqsix,1,11,105506,8,1,threat,threat,picture2.jpg,picture2.jpg,1,neutral,neutral,picture7.jpg,picture7.jpg,1,neutral,neutral,picture3.jpg,picture3.jpg,1,threat,threat,picture3.jpg,picture3.jpg,1,neutral,neutral,picture6.jpg,picture6.jpg,1,neutral,neutral,picture9.jpg,picture9.jpg,0,neutral,threat,picture4.jpg,picture1.jpg,1,neutral,neutral,picture5.jpg,picture5.jpg,0,threat,neutral,picture1.jpg,picture4.jpg,1,threat,threat,picture4.jpg,picture4.jpg
a2ctbahecdqsix,1,12,246423,10,1,threat,threat,picture2.jpg,picture2.jpg,1,neutral,neutral,picture7.jpg,picture7.jpg,1,neutral,neutral,picture3.jpg,picture3.jpg,1,threat,threat,picture3.jpg,picture3.jpg,1,neutral,neutral,picture6.jpg,picture6.jpg,1,neutral,neutral,picture9.jpg,picture9.jpg,1,threat,threat,picture1.jpg,picture1.jpg,1,neutral,neutral,picture5.jpg,picture5.jpg,1,neutral,neutral,picture4.jpg,picture4.jpg,1,threat,threat,picture4.jpg,picture4.jpg
a2ctbahecdqsix,2,1,42605,10,1,threat,threat,picture2.jpg,picture2.jpg,1,neutral,neutral,picture7.jpg,picture7.jpg,1,neutral,neutral,picture3.jpg,picture3.jpg,1,threat,threat,picture3.jpg,picture3.jpg,1,neutral,neutral,picture6.jpg,picture6.jpg,1,neutral,neutral,picture9.jpg,picture9.jpg,1,threat,threat,picture1.jpg,picture1.jpg,1,neutral,neutral,picture5.jpg,picture5.jpg,1,neutral,neutral,picture4.jpg,picture4.jpg,1,threat,threat,picture4.jpg,picture4.jpg
a2ctbahecdqsix,3,1,32478,10,1,threat,threat,picture2.jpg,picture2.jpg,1,neutral,neutral,picture7.jpg,picture7.jpg,1,neutral,neutral,picture3.jpg,picture3.jpg,1,threat,threat,picture3.jpg,picture3.jpg,1,neutral,neutral,picture6.jpg,picture6.jpg,1,neutral,neutral,picture9.jpg,picture9.jpg,1,threat,threat,picture1.jpg,picture1.jpg,1,neutral,neutral,picture5.jpg,picture5.jpg,1,neutral,neutral,picture4.jpg,picture4.jpg,1,threat,threat,picture4.jpg,picture4.jpg
a2ctbahecdqsix,4,1,69189,10,1,threat,threat,picture2.jpg,picture2.jpg,1,neutral,neutral,picture7.jpg,picture7.jpg,1,neutral,neutral,picture3.jpg,picture3.jpg,1,threat,threat,picture3.jpg,picture3.jpg,1,neutral,neutral,picture6.jpg,picture6.jpg,1,neutral,neutral,picture9.jpg,picture9.jpg,1,threat,threat,picture1.jpg,picture1.jpg,1,neutral,neutral,picture5.jpg,picture5.jpg,1,neutral,neutral,picture4.jpg,picture4.jpg,1,threat,threat,picture4.jpg,picture4.jpg
a178bxd4ubx932,1,1,59729,1,0,threat,neutral,picture4.jpg,picture10.jpg,0,neutral,neutral,picture10.jpg,picture4.jpg,0,neutral,threat,picture8.jpg,picture2.jpg,0,neutral,threat,picture3.jpg,picture3.jpg,1,neutral,neutral,picture9.jpg,picture9.jpg,0,neutral,neutral,picture1.jpg,picture3.jpg,0,threat,neutral,picture1.jpg,picture8.jpg,0,neutral,threat,picture4.jpg,picture1.jpg,0,threat,neutral,picture3.jpg,picture1.jpg,0,threat,threat,picture2.jpg,picture4.jpg
a178bxd4ubx932,1,2,64317,1,0,threat,neutral,picture4.jpg,picture10.jpg,0,neutral,neutral,picture10.jpg,picture4.jpg,0,neutral,threat,picture8.jpg,picture2.jpg,0,neutral,threat,picture3.jpg,picture3.jpg,1,neutral,neutral,picture9.jpg,picture9.jpg,0,threat,neutral,picture1.jpg,picture3.jpg,0,neutral,neutral,picture1.jpg,picture8.jpg,0,neutral,threat,picture4.jpg,picture1.jpg,0,threat,neutral,picture3.jpg,picture1.jpg,0,threat,threat,picture2.jpg,picture4.jpg
a178bxd4ubx932,1,3,78625,1,0,threat,neutral,picture4.jpg,picture10.jpg,0,neutral,neutral,picture10.jpg,picture4.jpg,0,neutral,threat,picture8.jpg,picture2.jpg,0,neutral,threat,picture3.jpg,picture3.jpg,1,neutral,neutral,picture9.jpg,picture9.jpg,0,neutral,neutral,picture1.jpg,picture3.jpg,0,threat,neutral,picture1.jpg,picture8.jpg,0,neutral,threat,picture4.jpg,picture1.jpg,0,threat,neutral,picture3.jpg,picture1.jpg,0,threat,threat,picture2.jpg,picture4.jpg
a178bxd4ubx932,1,4,83975,1,0,threat,neutral,picture2.jpg,picture10.jpg,0,neutral,neutral,picture10.jpg,picture4.jpg,0,neutral,threat,picture8.jpg,picture2.jpg,0,neutral,threat,picture3.jpg,picture3.jpg,1,neutral,neutral,picture9.jpg,picture9.jpg,0,neutral,neutral,picture1.jpg,picture3.jpg,0,threat,neutral,picture4.jpg,picture8.jpg,0,neutral,threat,picture4.jpg,picture1.jpg,0,threat,neutral,picture3.jpg,picture1.jpg,0,threat,threat,picture1.jpg,picture4.jpg
a178bxd4ubx932,1,5,87086,1,0,threat,neutral,picture2.jpg,picture10.jpg,0,threat,neutral,picture4.jpg,picture4.jpg,0,neutral,threat,picture8.jpg,picture2.jpg,0,neutral,threat,picture3.jpg,picture3.jpg,1,neutral,neutral,picture9.jpg,picture9.jpg,0,neutral,neutral,picture1.jpg,picture3.jpg,0,neutral,neutral,picture10.jpg,picture8.jpg,0,neutral,threat,picture4.jpg,picture1.jpg,0,threat,neutral,picture3.jpg,picture1.jpg,0,threat,threat,picture1.jpg,picture4.jpg
a178bxd4ubx932,1,6,89728,2,0,threat,neutral,picture2.jpg,picture10.jpg,0,threat,neutral,picture4.jpg,picture4.jpg,0,neutral,threat,picture10.jpg,picture2.jpg,0,neutral,threat,picture3.jpg,picture3.jpg,1,neutral,neutral,picture9.jpg,picture9.jpg,0,neutral,neutral,picture1.jpg,picture3.jpg,1,neutral,neutral,picture8.jpg,picture8.jpg,0,neutral,threat,picture4.jpg,picture1.jpg,0,threat,neutral,picture3.jpg,picture1.jpg,0,threat,threat,picture1.jpg,picture4.jpg
a178bxd4ubx932,1,7,97788,2,0,threat,neutral,picture2.jpg,picture10.jpg,0,threat,neutral,picture4.jpg,picture4.jpg,0,neutral,threat,picture10.jpg,picture2.jpg,0,neutral,threat,picture3.jpg,picture3.jpg,1,neutral,neutral,picture9.jpg,picture9.jpg,0,threat,neutral,picture1.jpg,picture3.jpg,1,neutral,neutral,picture8.jpg,picture8.jpg,0,neutral,threat,picture4.jpg,picture1.jpg,0,threat,neutral,picture3.jpg,picture1.jpg,0,neutral,threat,picture1.jpg,picture4.jpg
a178bxd4ubx932,1,8,99908,2,0,threat,neutral,picture2.jpg,picture10.jpg,0,threat,neutral,picture4.jpg,picture4.jpg,0,neutral,threat,picture10.jpg,picture2.jpg,0,neutral,threat,picture3.jpg,picture3.jpg,1,neutral,neutral,picture9.jpg,picture9.jpg,0,threat,neutral,picture1.jpg,picture3.jpg,1,neutral,neutral,picture8.jpg,picture8.jpg,0,threat,threat,picture3.jpg,picture1.jpg,0,neutral,neutral,picture4.jpg,picture1.jpg,0,neutral,threat,picture1.jpg,picture4.jpg
a178bxd4ubx932,1,9,102147,3,0,threat,neutral,picture2.jpg,picture10.jpg,0,threat,neutral,picture4.jpg,picture4.jpg,0,neutral,threat,picture10.jpg,picture2.jpg,0,neutral,threat,picture3.jpg,picture3.jpg,1,neutral,neutral,picture9.jpg,picture9.jpg,0,threat,neutral,picture1.jpg,picture3.jpg,1,neutral,neutral,picture8.jpg,picture8.jpg,0,threat,threat,picture3.jpg,picture1.jpg,1,neutral,neutral,picture1.jpg,picture1.jpg,0,neutral,threat,picture4.jpg,picture4.jpg
a178bxd4ubx932,1,10,105921,3,0,threat,neutral,picture2.jpg,picture10.jpg,0,threat,neutral,picture4.jpg,picture4.jpg,0,neutral,threat,picture10.jpg,picture2.jpg,0,neutral,threat,picture3.jpg,picture3.jpg,1,neutral,neutral,picture9.jpg,picture9.jpg,0,threat,neutral,picture1.jpg,picture3.jpg,1,neutral,neutral,picture8.jpg,picture8.jpg,0,neutral,threat,picture4.jpg,picture1.jpg,1,neutral,neutral,picture1.jpg,picture1.jpg,0,threat,threat,picture3.jpg,picture4.jpg
a178bxd4ubx932,1,11,108928,4,0,threat,neutral,picture2.jpg,picture10.jpg,0,threat,neutral,picture4.jpg,picture4.jpg,0,neutral,threat,picture10.jpg,picture2.jpg,0,neutral,threat,picture3.jpg,picture3.jpg,1,neutral,neutral,picture9.jpg,picture9.jpg,0,neutral,neutral,picture4.jpg,picture3.jpg,1,neutral,neutral,picture8.jpg,picture8.jpg,1,threat,threat,picture1.jpg,picture1.jpg,1,neutral,neutral,picture1.jpg,picture1.jpg,0,threat,threat,picture3.jpg,picture4.jpg
a178bxd4ubx932,1,12,112278,4,0,threat,neutral,picture3.jpg,picture10.jpg,0,threat,neutral,picture4.jpg,picture4.jpg,0,neutral,threat,picture10.jpg,picture2.jpg,0,neutral,threat,picture3.jpg,picture3.jpg,1,neutral,neutral,picture9.jpg,picture9.jpg,0,neutral,neutral,picture4.jpg,picture3.jpg,1,neutral,neutral,picture8.jpg,picture8.jpg,1,threat,threat,picture1.jpg,picture1.jpg,1,neutral,neutral,picture1.jpg,picture1.jpg,0,threat,threat,picture2.jpg,picture4.jpg
a178bxd4ubx932,1,13,115789,4,0,threat,neutral,picture4.jpg,picture10.jpg,0,threat,neutral,picture3.jpg,picture4.jpg,0,neutral,threat,picture10.jpg,picture2.jpg,0,neutral,threat,picture3.jpg,picture3.jpg,1,neutral,neutral,picture9.jpg,picture9.jpg,0,neutral,neutral,picture4.jpg,picture3.jpg,1,neutral,neutral,picture8.jpg,picture8.jpg,1,threat,threat,picture1.jpg,picture1.jpg,1,neutral,neutral,picture1.jpg,picture1.jpg,0,threat,threat,picture2.jpg,picture4.jpg
a178bxd4ubx932,1,14,117957,4,0,threat,neutral,picture4.jpg,picture10.jpg,0,neutral,neutral,picture10.jpg,picture4.jpg,0,threat,threat,picture3.jpg,picture2.jpg,0,neutral,threat,picture3.jpg,picture3.jpg,1,neutral,neutral,picture9.jpg,picture9.jpg,0,neutral,neutral,picture4.jpg,picture3.jpg,1,neutral,neutral,picture8.jpg,picture8.jpg,1,threat,threat,picture1.jpg,picture1.jpg,1,neutral,neutral,picture1.jpg,picture1.jpg,0,threat,threat,picture2.jpg,picture4.jpg
a178bxd4ubx932,1,15,121131,5,0,threat,neutral,picture4.jpg,picture10.jpg,0,neutral,neutral,picture10.jpg,picture4.jpg,0,neutral,threat,picture3.jpg,picture2.jpg,1,threat,threat,picture3.jpg,picture3.jpg,1,neutral,neutral,picture9.jpg,picture9.jpg,0,neutral,neutral,picture4.jpg,picture3.jpg,1,neutral,neutral,picture8.jpg,picture8.jpg,1,threat,threat,picture1.jpg,picture1.jpg,1,neutral,neutral,picture1.jpg,picture1.jpg,0,threat,threat,picture2.jpg,picture4.jpg
a178bxd4ubx932,1,16,124770,5,0,neutral,neutral,picture3.jpg,picture10.jpg,0,neutral,neutral,picture10.jpg,picture4.jpg,0,threat,threat,picture4.jpg,picture2.jpg,1,threat,threat,picture3.jpg,picture3.jpg,1,neutral,neutral,picture9.jpg,picture9.jpg,0,neutral,neutral,picture4.jpg,picture3.jpg,1,neutral,neutral,picture8.jpg,picture8.jpg,1,threat,threat,picture1.jpg,picture1.jpg,1,neutral,neutral,picture1.jpg,picture1.jpg,0,threat,threat,picture2.jpg,picture4.jpg
a178bxd4ubx932,1,17,129317,5,0,neutral,neutral,picture3.jpg,picture10.jpg,0,threat,neutral,picture2.jpg,picture4.jpg,0,threat,threat,picture4.jpg,picture2.jpg,1,threat,threat,picture3.jpg,picture3.jpg,1,neutral,neutral,picture9.jpg,picture9.jpg,0,neutral,neutral,picture4.jpg,picture3.jpg,1,neutral,neutral,picture8.jpg,picture8.jpg,1,threat,threat,picture1.jpg,picture1.jpg,1,neutral,neutral,picture1.jpg,picture1.jpg,0,neutral,threat,picture10.jpg,picture4.jpg
a178bxd4ubx932,1,18,131596,5,0,neutral,neutral,picture3.jpg,picture10.jpg,0,threat,neutral,picture2.jpg,picture4.jpg,0,threat,threat,picture4.jpg,picture2.jpg,1,threat,threat,picture3.jpg,picture3.jpg,1,neutral,neutral,picture9.jpg,picture9.jpg,0,neutral,neutral,picture10.jpg,picture3.jpg,1,neutral,neutral,picture8.jpg,picture8.jpg,1,threat,threat,picture1.jpg,picture1.jpg,1,neutral,neutral,picture1.jpg,picture1.jpg,0,neutral,threat,picture4.jpg,picture4.jpg
a178bxd4ubx932,1,19,134565,7,1,neutral,neutral,picture10.jpg,picture10.jpg,0,threat,neutral,picture2.jpg,picture4.jpg,0,threat,threat,picture4.jpg,picture2.jpg,1,threat,threat,picture3.jpg,picture3.jpg,1,neutral,neutral,picture9.jpg,picture9.jpg,1,neutral,neutral,picture3.jpg,picture3.jpg,1,neutral,neutral,picture8.jpg,picture8.jpg,1,threat,threat,picture1.jpg,picture1.jpg,1,neutral,neutral,picture1.jpg,picture1.jpg,0,neutral,threat,picture4.jpg,picture4.jpg
a178bxd4ubx932,1,20,138065,8,1,neutral,neutral,picture10.jpg,picture10.jpg,0,threat,neutral,picture4.jpg,picture4.jpg,1,threat,threat,picture2.jpg,picture2.jpg,1,threat,threat,picture3.jpg,picture3.jpg,1,neutral,neutral,picture9.jpg,picture9.jpg,1,neutral,neutral,picture3.jpg,picture3.jpg,1,neutral,neutral,picture8.jpg,picture8.jpg,1,threat,threat,picture1.jpg,picture1.jpg,1,neutral,neutral,picture1.jpg,picture1.jpg,0,neutral,threat,picture4.jpg,picture4.jpg
a178bxd4ubx932,1,21,140795,10,1,neutral,neutral,picture10.jpg,picture10.jpg,1,neutral,neutral,picture4.jpg,picture4.jpg,1,threat,threat,picture2.jpg,picture2.jpg,1,threat,threat,picture3.jpg,picture3.jpg,1,neutral,neutral,picture9.jpg,picture9.jpg,1,neutral,neutral,picture3.jpg,picture3.jpg,1,neutral,neutral,picture8.jpg,picture8.jpg,1,threat,threat,picture1.jpg,picture1.jpg,1,neutral,neutral,picture1.jpg,picture1.jpg,1,threat,threat,picture4.jpg,picture4.jpg
a178bxd4ubx932,2,1,38115,10,1,neutral,neutral,picture10.jpg,picture10.jpg,1,neutral,neutral,picture4.jpg,picture4.jpg,1,threat,threat,picture2.jpg,picture2.jpg,1,threat,threat,picture3.jpg,picture3.jpg,1,neutral,neutral,picture9.jpg,picture9.jpg,1,neutral,neutral,picture3.jpg,picture3.jpg,1,neutral,neutral,picture8.jpg,picture8.jpg,1,threat,threat,picture1.jpg,picture1.jpg,1,neutral,neutral,picture1.jpg,picture1.jpg,1,threat,threat,picture4.jpg,picture4.jpg
a178bxd4ubx932,3,1,72118,10,1,neutral,neutral,picture10.jpg,picture10.jpg,1,neutral,neutral,picture4.jpg,picture4.jpg,1,threat,threat,picture2.jpg,picture2.jpg,1,threat,threat,picture3.jpg,picture3.jpg,1,neutral,neutral,picture9.jpg,picture9.jpg,1,neutral,neutral,picture3.jpg,picture3.jpg,1,neutral,neutral,picture8.jpg,picture8.jpg,1,threat,threat,picture1.jpg,picture1.jpg,1,neutral,neutral,picture1.jpg,picture1.jpg,1,threat,threat,picture4.jpg,picture4.jpg
a178bxd4ubx932,4,1,25206,10,1,neutral,neutral,picture10.jpg,picture10.jpg,1,neutral,neutral,picture4.jpg,picture4.jpg,1,threat,threat,picture2.jpg,picture2.jpg,1,threat,threat,picture3.jpg,picture3.jpg,1,neutral,neutral,picture9.jpg,picture9.jpg,1,neutral,neutral,picture3.jpg,picture3.jpg,1,neutral,neutral,picture8.jpg,picture8.jpg,1,threat,threat,picture1.jpg,picture1.jpg,1,neutral,neutral,picture1.jpg,picture1.jpg,1,threat,threat,picture4.jpg,picture4.jpg
a2tbkohgx08vrk,1,1,40396,1,0,neutral,threat,picture7.jpg,picture3.jpg,0,threat,neutral,picture3.jpg,picture4.jpg,0,threat,threat,picture1.jpg,picture4.jpg,1,neutral,neutral,picture5.jpg,picture5.jpg,0,threat,neutral,picture2.jpg,picture10.jpg,0,threat,neutral,picture4.jpg,picture6.jpg,0,neutral,threat,picture4.jpg,picture2.jpg,0,neutral,neutral,picture1.jpg,picture7.jpg,0,neutral,threat,picture10.jpg,picture1.jpg,0,neutral,neutral,picture6.jpg,picture1.jpg
a2tbkohgx08vrk,1,2,52680,2,0,neutral,threat,picture4.jpg,picture3.jpg,0,threat,neutral,picture3.jpg,picture4.jpg,0,threat,threat,picture2.jpg,picture4.jpg,1,neutral,neutral,picture5.jpg,picture5.jpg,0,threat,neutral,picture1.jpg,picture10.jpg,0,neutral,neutral,picture10.jpg,picture6.jpg,0,neutral,threat,picture7.jpg,picture2.jpg,0,neutral,neutral,picture6.jpg,picture7.jpg,0,threat,threat,picture4.jpg,picture1.jpg,1,neutral,neutral,picture1.jpg,picture1.jpg
a2tbkohgx08vrk,1,3,63781,3,0,threat,threat,picture1.jpg,picture3.jpg,0,threat,neutral,picture3.jpg,picture4.jpg,0,neutral,threat,picture7.jpg,picture4.jpg,1,neutral,neutral,picture5.jpg,picture5.jpg,0,neutral,neutral,picture4.jpg,picture10.jpg,0,threat,neutral,picture4.jpg,picture6.jpg,1,threat,threat,picture2.jpg,picture2.jpg,0,neutral,neutral,picture6.jpg,picture7.jpg,0,neutral,threat,picture10.jpg,picture1.jpg,1,neutral,neutral,picture1.jpg,picture1.jpg
a2tbkohgx08vrk,1,4,74599,4,0,neutral,threat,picture7.jpg,picture3.jpg,1,neutral,neutral,picture4.jpg,picture4.jpg,0,threat,threat,picture1.jpg,picture4.jpg,1,neutral,neutral,picture5.jpg,picture5.jpg,0,threat,neutral,picture3.jpg,picture10.jpg,0,threat,neutral,picture4.jpg,picture6.jpg,1,threat,threat,picture2.jpg,picture2.jpg,0,neutral,neutral,picture10.jpg,picture7.jpg,0,neutral,threat,picture6.jpg,picture1.jpg,1,neutral,neutral,picture1.jpg,picture1.jpg
a2tbkohgx08vrk,1,5,83638,4,0,threat,threat,picture4.jpg,picture3.jpg,1,neutral,neutral,picture4.jpg,picture4.jpg,0,neutral,threat,picture7.jpg,picture4.jpg,1,neutral,neutral,picture5.jpg,picture5.jpg,0,threat,neutral,picture3.jpg,picture10.jpg,0,threat,neutral,picture1.jpg,picture6.jpg,1,threat,threat,picture2.jpg,picture2.jpg,0,neutral,neutral,picture6.jpg,picture7.jpg,0,neutral,threat,picture10.jpg,picture1.jpg,1,neutral,neutral,picture1.jpg,picture1.jpg
a2tbkohgx08vrk,1,6,88557,4,0,neutral,threat,picture6.jpg,picture3.jpg,1,neutral,neutral,picture4.jpg,picture4.jpg,0,neutral,threat,picture7.jpg,picture4.jpg,1,neutral,neutral,picture5.jpg,picture5.jpg,0,threat,neutral,picture3.jpg,picture10.jpg,0,threat,neutral,picture1.jpg,picture6.jpg,1,threat,threat,picture2.jpg,picture2.jpg,0,threat,neutral,picture4.jpg,picture7.jpg,0,neutral,threat,picture10.jpg,picture1.jpg,1,neutral,neutral,picture1.jpg,picture1.jpg
a2tbkohgx08vrk,1,7,92437,5,0,threat,threat,picture1.jpg,picture3.jpg,1,neutral,neutral,picture4.jpg,picture4.jpg,0,neutral,threat,picture7.jpg,picture4.jpg,1,neutral,neutral,picture5.jpg,picture5.jpg,0,threat,neutral,picture3.jpg,picture10.jpg,1,neutral,neutral,picture6.jpg,picture6.jpg,1,threat,threat,picture2.jpg,picture2.jpg,0,threat,neutral,picture4.jpg,picture7.jpg,0,neutral,threat,picture10.jpg,picture1.jpg,1,neutral,neutral,picture1.jpg,picture1.jpg
a2tbkohgx08vrk,1,8,96487,5,0,neutral,threat,picture7.jpg,picture3.jpg,1,neutral,neutral,picture4.jpg,picture4.jpg,0,threat,threat,picture1.jpg,picture4.jpg,1,neutral,neutral,picture5.jpg,picture5.jpg,0,threat,neutral,picture3.jpg,picture10.jpg,1,neutral,neutral,picture6.jpg,picture6.jpg,1,threat,threat,picture2.jpg,picture2.jpg,0,threat,neutral,picture4.jpg,picture7.jpg,0,neutral,threat,picture10.jpg,picture1.jpg,1,neutral,neutral,picture1.jpg,picture1.jpg
a2tbkohgx08vrk,1,9,102534,5,0,neutral,threat,picture10.jpg,picture3.jpg,1,neutral,neutral,picture4.jpg,picture4.jpg,0,threat,threat,picture1.jpg,picture4.jpg,1,neutral,neutral,picture5.jpg,picture5.jpg,0,threat,neutral,picture4.jpg,picture10.jpg,1,neutral,neutral,picture6.jpg,picture6.jpg,1,threat,threat,picture2.jpg,picture2.jpg,0,threat,neutral,picture3.jpg,picture7.jpg,0,neutral,threat,picture7.jpg,picture1.jpg,1,neutral,neutral,picture1.jpg,picture1.jpg
a2tbkohgx08vrk,1,10,108358,7,0,threat,threat,picture4.jpg,picture3.jpg,1,neutral,neutral,picture4.jpg,picture4.jpg,0,neutral,threat,picture7.jpg,picture4.jpg,1,neutral,neutral,picture5.jpg,picture5.jpg,1,neutral,neutral,picture10.jpg,picture10.jpg,1,neutral,neutral,picture6.jpg,picture6.jpg,1,threat,threat,picture2.jpg,picture2.jpg,0,threat,neutral,picture3.jpg,picture7.jpg,1,threat,threat,picture1.jpg,picture1.jpg,1,neutral,neutral,picture1.jpg,picture1.jpg
a2tbkohgx08vrk,1,11,112568,8,1,threat,threat,picture3.jpg,picture3.jpg,1,neutral,neutral,picture4.jpg,picture4.jpg,0,neutral,threat,picture7.jpg,picture4.jpg,1,neutral,neutral,picture5.jpg,picture5.jpg,1,neutral,neutral,picture10.jpg,picture10.jpg,1,neutral,neutral,picture6.jpg,picture6.jpg,1,threat,threat,picture2.jpg,picture2.jpg,0,threat,neutral,picture4.jpg,picture7.jpg,1,threat,threat,picture1.jpg,picture1.jpg,1,neutral,neutral,picture1.jpg,picture1.jpg
a2tbkohgx08vrk,1,12,116985,10,1,threat,threat,picture3.jpg,picture3.jpg,1,neutral,neutral,picture4.jpg,picture4.jpg,1,threat,threat,picture4.jpg,picture4.jpg,1,neutral,neutral,picture5.jpg,picture5.jpg,1,neutral,neutral,picture10.jpg,picture10.jpg,1,neutral,neutral,picture6.jpg,picture6.jpg,1,threat,threat,picture2.jpg,picture2.jpg,1,neutral,neutral,picture7.jpg,picture7.jpg,1,threat,threat,picture1.jpg,picture1.jpg,1,neutral,neutral,picture1.jpg,picture1.jpg
a2tbkohgx08vrk,2,1,38292,10,1,threat,threat,picture3.jpg,picture3.jpg,1,neutral,neutral,picture4.jpg,picture4.jpg,1,threat,threat,picture4.jpg,picture4.jpg,1,neutral,neutral,picture5.jpg,picture5.jpg,1,neutral,neutral,picture10.jpg,picture10.jpg,1,neutral,neutral,picture6.jpg,picture6.jpg,1,threat,threat,picture2.jpg,picture2.jpg,1,neutral,neutral,picture7.jpg,picture7.jpg,1,threat,threat,picture1.jpg,picture1.jpg,1,neutral,neutral,picture1.jpg,picture1.jpg
a2tbkohgx08vrk,3,1,35629,10,1,threat,threat,picture3.jpg,picture3.jpg,1,neutral,neutral,picture4.jpg,picture4.jpg,1,threat,threat,picture4.jpg,picture4.jpg,1,neutral,neutral,picture5.jpg,picture5.jpg,1,neutral,neutral,picture10.jpg,picture10.jpg,1,neutral,neutral,picture6.jpg,picture6.jpg,1,threat,threat,picture2.jpg,picture2.jpg,1,neutral,neutral,picture7.jpg,picture7.jpg,1,threat,threat,picture1.jpg,picture1.jpg,1,neutral,neutral,picture1.jpg,picture1.jpg
a2tbkohgx08vrk,4,1,40339,10,1,threat,threat,picture3.jpg,picture3.jpg,1,neutral,neutral,picture4.jpg,picture4.jpg,1,threat,threat,picture4.jpg,picture4.jpg,1,neutral,neutral,picture5.jpg,picture5.jpg,1,neutral,neutral,picture10.jpg,picture10.jpg,1,neutral,neutral,picture6.jpg,picture6.jpg,1,threat,threat,picture2.jpg,picture2.jpg,1,neutral,neutral,picture7.jpg,picture7.jpg,1,threat,threat,picture1.jpg,picture1.jpg,1,neutral,neutral,picture1.jpg,picture1.jpg
a170wnufjk56wd,1,1,37170,2,0,threat,threat,picture2.jpg,picture3.jpg,0,neutral,threat,picture1.jpg,picture2.jpg,0,threat,neutral,picture3.jpg,picture5.jpg,0,neutral,neutral,picture9.jpg,picture1.jpg,0,neutral,neutral,picture5.jpg,picture10.jpg,0,threat,neutral,picture4.jpg,picture7.jpg,0,neutral,threat,picture7.jpg,picture4.jpg,1,neutral,neutral,picture6.jpg,picture6.jpg,0,neutral,neutral,picture10.jpg,picture9.jpg,1,threat,threat,picture1.jpg,picture1.jpg
a170wnufjk56wd,1,2,47329,3,0,neutral,threat,picture1.jpg,picture3.jpg,1,threat,threat,picture2.jpg,picture2.jpg,0,neutral,neutral,picture9.jpg,picture5.jpg,0,threat,neutral,picture3.jpg,picture1.jpg,0,neutral,neutral,picture7.jpg,picture10.jpg,0,threat,neutral,picture4.jpg,picture7.jpg,0,neutral,threat,picture5.jpg,picture4.jpg,1,neutral,neutral,picture6.jpg,picture6.jpg,0,neutral,neutral,picture10.jpg,picture9.jpg,1,threat,threat,picture1.jpg,picture1.jpg
a170wnufjk56wd,1,3,58734,5,0,neutral,threat,picture1.jpg,picture3.jpg,1,threat,threat,picture2.jpg,picture2.jpg,0,neutral,neutral,picture9.jpg,picture5.jpg,0,threat,neutral,picture3.jpg,picture1.jpg,1,neutral,neutral,picture10.jpg,picture10.jpg,0,neutral,neutral,picture5.jpg,picture7.jpg,1,threat,threat,picture4.jpg,picture4.jpg,1,neutral,neutral,picture6.jpg,picture6.jpg,0,neutral,neutral,picture7.jpg,picture9.jpg,1,threat,threat,picture1.jpg,picture1.jpg
a170wnufjk56wd,1,4,72390,8,1,threat,threat,picture3.jpg,picture3.jpg,1,threat,threat,picture2.jpg,picture2.jpg,0,neutral,neutral,picture9.jpg,picture5.jpg,1,neutral,neutral,picture1.jpg,picture1.jpg,1,neutral,neutral,picture10.jpg,picture10.jpg,1,neutral,neutral,picture7.jpg,picture7.jpg,1,threat,threat,picture4.jpg,picture4.jpg,1,neutral,neutral,picture6.jpg,picture6.jpg,0,neutral,neutral,picture5.jpg,picture9.jpg,1,threat,threat,picture1.jpg,picture1.jpg
a170wnufjk56wd,1,5,84267,10,1,threat,threat,picture3.jpg,picture3.jpg,1,threat,threat,picture2.jpg,picture2.jpg,1,neutral,neutral,picture5.jpg,picture5.jpg,1,neutral,neutral,picture1.jpg,picture1.jpg,1,neutral,neutral,picture10.jpg,picture10.jpg,1,neutral,neutral,picture7.jpg,picture7.jpg,1,threat,threat,picture4.jpg,picture4.jpg,1,neutral,neutral,picture6.jpg,picture6.jpg,1,neutral,neutral,picture9.jpg,picture9.jpg,1,threat,threat,picture1.jpg,picture1.jpg
a170wnufjk56wd,2,1,39877,10,1,threat,threat,picture3.jpg,picture3.jpg,1,threat,threat,picture2.jpg,picture2.jpg,1,neutral,neutral,picture5.jpg,picture5.jpg,1,neutral,neutral,picture1.jpg,picture1.jpg,1,neutral,neutral,picture10.jpg,picture10.jpg,1,neutral,neutral,picture7.jpg,picture7.jpg,1,threat,threat,picture4.jpg,picture4.jpg,1,neutral,neutral,picture6.jpg,picture6.jpg,1,neutral,neutral,picture9.jpg,picture9.jpg,1,threat,threat,picture1.jpg,picture1.jpg
a170wnufjk56wd,3,1,35257,10,1,threat,threat,picture3.jpg,picture3.jpg,1,threat,threat,picture2.jpg,picture2.jpg,1,neutral,neutral,picture5.jpg,picture5.jpg,1,neutral,neutral,picture1.jpg,picture1.jpg,1,neutral,neutral,picture10.jpg,picture10.jpg,1,neutral,neutral,picture7.jpg,picture7.jpg,1,threat,threat,picture4.jpg,picture4.jpg,1,neutral,neutral,picture6.jpg,picture6.jpg,1,neutral,neutral,picture9.jpg,picture9.jpg,1,threat,threat,picture1.jpg,picture1.jpg
a170wnufjk56wd,4,1,36346,10,1,threat,threat,picture3.jpg,picture3.jpg,1,threat,threat,picture2.jpg,picture2.jpg,1,neutral,neutral,picture5.jpg,picture5.jpg,1,neutral,neutral,picture1.jpg,picture1.jpg,1,neutral,neutral,picture10.jpg,picture10.jpg,1,neutral,neutral,picture7.jpg,picture7.jpg,1,threat,threat,picture4.jpg,picture4.jpg,1,neutral,neutral,picture6.jpg,picture6.jpg,1,neutral,neutral,picture9.jpg,picture9.jpg,1,threat,threat,picture1.jpg,picture1.jpg
a3my6t1kdlazvp,1,1,57243,3,1,threat,threat,picture2.jpg,picture2.jpg,1,neutral,neutral,picture10.jpg,picture10.jpg,0,threat,neutral,picture1.jpg,picture7.jpg,0,neutral,threat,picture1.jpg,picture3.jpg,0,neutral,neutral,picture7.jpg,picture9.jpg,1,neutral,neutral,picture8.jpg,picture8.jpg,0,neutral,neutral,picture9.jpg,picture2.jpg,0,threat,neutral,picture4.jpg,picture1.jpg,0,threat,threat,picture3.jpg,picture1.jpg,0,neutral,threat,picture2.jpg,picture4.jpg
a3my6t1kdlazvp,1,2,65596,4,1,threat,threat,picture2.jpg,picture2.jpg,1,neutral,neutral,picture10.jpg,picture10.jpg,0,threat,neutral,picture1.jpg,picture7.jpg,0,neutral,threat,picture1.jpg,picture3.jpg,1,neutral,neutral,picture9.jpg,picture9.jpg,1,neutral,neutral,picture8.jpg,picture8.jpg,0,neutral,neutral,picture7.jpg,picture2.jpg,0,threat,neutral,picture4.jpg,picture1.jpg,0,threat,threat,picture3.jpg,picture1.jpg,0,neutral,threat,picture2.jpg,picture4.jpg
a3my6t1kdlazvp,1,3,73064,4,1,threat,threat,picture2.jpg,picture2.jpg,1,neutral,neutral,picture10.jpg,picture10.jpg,0,threat,neutral,picture1.jpg,picture7.jpg,0,neutral,threat,picture1.jpg,picture3.jpg,1,neutral,neutral,picture9.jpg,picture9.jpg,1,neutral,neutral,picture8.jpg,picture8.jpg,0,threat,neutral,picture4.jpg,picture2.jpg,0,neutral,neutral,picture7.jpg,picture1.jpg,0,threat,threat,picture3.jpg,picture1.jpg,0,neutral,threat,picture2.jpg,picture4.jpg
a3my6t1kdlazvp,1,4,79115,4,1,threat,threat,picture2.jpg,picture2.jpg,1,neutral,neutral,picture10.jpg,picture10.jpg,0,threat,neutral,picture1.jpg,picture7.jpg,0,neutral,threat,picture2.jpg,picture3.jpg,1,neutral,neutral,picture9.jpg,picture9.jpg,1,neutral,neutral,picture8.jpg,picture8.jpg,0,threat,neutral,picture4.jpg,picture2.jpg,0,neutral,neutral,picture7.jpg,picture1.jpg,0,threat,threat,picture3.jpg,picture1.jpg,0,neutral,threat,picture1.jpg,picture4.jpg
a3my6t1kdlazvp,1,5,83993,5,1,threat,threat,picture2.jpg,picture2.jpg,1,neutral,neutral,picture10.jpg,picture10.jpg,0,threat,neutral,picture3.jpg,picture7.jpg,0,neutral,threat,picture2.jpg,picture3.jpg,1,neutral,neutral,picture9.jpg,picture9.jpg,1,neutral,neutral,picture8.jpg,picture8.jpg,0,threat,neutral,picture4.jpg,picture2.jpg,0,neutral,neutral,picture7.jpg,picture1.jpg,1,threat,threat,picture1.jpg,picture1.jpg,0,neutral,threat,picture1.jpg,picture4.jpg
a3my6t1kdlazvp,1,6,91258,5,1,threat,threat,picture2.jpg,picture2.jpg,1,neutral,neutral,picture10.jpg,picture10.jpg,0,threat,neutral,picture3.jpg,picture7.jpg,0,neutral,threat,picture2.jpg,picture3.jpg,1,neutral,neutral,picture9.jpg,picture9.jpg,1,neutral,neutral,picture8.jpg,picture8.jpg,0,neutral,neutral,picture7.jpg,picture2.jpg,0,threat,neutral,picture4.jpg,picture1.jpg,1,threat,threat,picture1.jpg,picture1.jpg,0,neutral,threat,picture1.jpg,picture4.jpg
a3my6t1kdlazvp,1,7,98224,6,1,threat,threat,picture2.jpg,picture2.jpg,1,neutral,neutral,picture10.jpg,picture10.jpg,0,neutral,neutral,picture2.jpg,picture7.jpg,1,threat,threat,picture3.jpg,picture3.jpg,1,neutral,neutral,picture9.jpg,picture9.jpg,1,neutral,neutral,picture8.jpg,picture8.jpg,0,neutral,neutral,picture7.jpg,picture2.jpg,0,threat,neutral,picture4.jpg,picture1.jpg,1,threat,threat,picture1.jpg,picture1.jpg,0,neutral,threat,picture1.jpg,picture4.jpg
a3my6t1kdlazvp,1,8,104933,7,1,threat,threat,picture2.jpg,picture2.jpg,1,neutral,neutral,picture10.jpg,picture10.jpg,1,neutral,neutral,picture7.jpg,picture7.jpg,1,threat,threat,picture3.jpg,picture3.jpg,1,neutral,neutral,picture9.jpg,picture9.jpg,1,neutral,neutral,picture8.jpg,picture8.jpg,0,neutral,neutral,picture1.jpg,picture2.jpg,0,threat,neutral,picture4.jpg,picture1.jpg,1,threat,threat,picture1.jpg,picture1.jpg,0,neutral,threat,picture2.jpg,picture4.jpg
a3my6t1kdlazvp,1,9,113687,8,1,threat,threat,picture2.jpg,picture2.jpg,1,neutral,neutral,picture10.jpg,picture10.jpg,1,neutral,neutral,picture7.jpg,picture7.jpg,1,threat,threat,picture3.jpg,picture3.jpg,1,neutral,neutral,picture9.jpg,picture9.jpg,1,neutral,neutral,picture8.jpg,picture8.jpg,0,threat,neutral,picture4.jpg,picture2.jpg,1,neutral,neutral,picture1.jpg,picture1.jpg,1,threat,threat,picture1.jpg,picture1.jpg,0,neutral,threat,picture2.jpg,picture4.jpg
a3my6t1kdlazvp,1,10,118458,10,1,threat,threat,picture2.jpg,picture2.jpg,1,neutral,neutral,picture10.jpg,picture10.jpg,1,neutral,neutral,picture7.jpg,picture7.jpg,1,threat,threat,picture3.jpg,picture3.jpg,1,neutral,neutral,picture9.jpg,picture9.jpg,1,neutral,neutral,picture8.jpg,picture8.jpg,1,neutral,neutral,picture2.jpg,picture2.jpg,1,neutral,neutral,picture1.jpg,picture1.jpg,1,threat,threat,picture1.jpg,picture1.jpg,1,threat,threat,picture4.jpg,picture4.jpg
a3my6t1kdlazvp,2,1,52491,10,1,threat,threat,picture2.jpg,picture2.jpg,1,neutral,neutral,picture10.jpg,picture10.jpg,1,neutral,neutral,picture7.jpg,picture7.jpg,1,threat,threat,picture3.jpg,picture3.jpg,1,neutral,neutral,picture9.jpg,picture9.jpg,1,neutral,neutral,picture8.jpg,picture8.jpg,1,neutral,neutral,picture2.jpg,picture2.jpg,1,neutral,neutral,picture1.jpg,picture1.jpg,1,threat,threat,picture1.jpg,picture1.jpg,1,threat,threat,picture4.jpg,picture4.jpg
a3my6t1kdlazvp,3,1,41559,10,1,threat,threat,picture2.jpg,picture2.jpg,1,neutral,neutral,picture10.jpg,picture10.jpg,1,neutral,neutral,picture7.jpg,picture7.jpg,1,threat,threat,picture3.jpg,picture3.jpg,1,neutral,neutral,picture9.jpg,picture9.jpg,1,neutral,neutral,picture8.jpg,picture8.jpg,1,neutral,neutral,picture2.jpg,picture2.jpg,1,neutral,neutral,picture1.jpg,picture1.jpg,1,threat,threat,picture1.jpg,picture1.jpg,1,threat,threat,picture4.jpg,picture4.jpg
a3my6t1kdlazvp,4,1,54676,10,1,threat,threat,picture2.jpg,picture2.jpg,1,neutral,neutral,picture10.jpg,picture10.jpg,1,neutral,neutral,picture7.jpg,picture7.jpg,1,threat,threat,picture3.jpg,picture3.jpg,1,neutral,neutral,picture9.jpg,picture9.jpg,1,neutral,neutral,picture8.jpg,picture8.jpg,1,neutral,neutral,picture2.jpg,picture2.jpg,1,neutral,neutral,picture1.jpg,picture1.jpg,1,threat,threat,picture1.jpg,picture1.jpg,1,threat,threat,picture4.jpg,picture4.jpg
a3hopybwsr1twr,1,1,24502,1,0,threat,threat,picture4.jpg,picture2.jpg,0,neutral,neutral,picture7.jpg,picture3.jpg,0,neutral,threat,picture9.jpg,picture1.jpg,0,threat,neutral,picture3.jpg,picture7.jpg,1,neutral,neutral,picture6.jpg,picture6.jpg,0,threat,neutral,picture1.jpg,picture1.jpg,0,neutral,threat,picture4.jpg,picture3.jpg,0,neutral,neutral,picture1.jpg,picture9.jpg,0,neutral,threat,picture3.jpg,picture4.jpg,0,threat,neutral,picture2.jpg,picture4.jpg
a3hopybwsr1twr,1,2,45887,1,0,neutral,threat,picture7.jpg,picture2.jpg,0,threat,neutral,picture4.jpg,picture3.jpg,0,neutral,threat,picture9.jpg,picture1.jpg,0,threat,neutral,picture3.jpg,picture7.jpg,1,neutral,neutral,picture6.jpg,picture6.jpg,0,neutral,neutral,picture4.jpg,picture1.jpg,0,threat,threat,picture1.jpg,picture3.jpg,0,neutral,neutral,picture1.jpg,picture9.jpg,0,neutral,threat,picture3.jpg,picture4.jpg,0,threat,neutral,picture2.jpg,picture4.jpg
a3hopybwsr1twr,1,3,48358,1,0,neutral,threat,picture7.jpg,picture2.jpg,0,threat,neutral,picture4.jpg,picture3.jpg,0,neutral,threat,picture9.jpg,picture1.jpg,0,threat,neutral,picture3.jpg,picture7.jpg,1,neutral,neutral,picture6.jpg,picture6.jpg,0,neutral,neutral,picture4.jpg,picture1.jpg,0,threat,threat,picture2.jpg,picture3.jpg,0,neutral,neutral,picture1.jpg,picture9.jpg,0,neutral,threat,picture3.jpg,picture4.jpg,0,threat,neutral,picture1.jpg,picture4.jpg
a3hopybwsr1twr,1,4,167366,1,0,neutral,threat,picture7.jpg,picture2.jpg,0,threat,neutral,picture4.jpg,picture3.jpg,0,neutral,threat,picture9.jpg,picture1.jpg,0,threat,neutral,picture3.jpg,picture7.jpg,1,neutral,neutral,picture6.jpg,picture6.jpg,0,neutral,neutral,picture4.jpg,picture1.jpg,0,threat,threat,picture1.jpg,picture3.jpg,0,neutral,neutral,picture1.jpg,picture9.jpg,0,neutral,threat,picture3.jpg,picture4.jpg,0,threat,neutral,picture2.jpg,picture4.jpg
a3hopybwsr1twr,1,5,169111,1,0,neutral,threat,picture7.jpg,picture2.jpg,0,threat,neutral,picture4.jpg,picture3.jpg,0,neutral,threat,picture9.jpg,picture1.jpg,0,threat,neutral,picture3.jpg,picture7.jpg,1,neutral,neutral,picture6.jpg,picture6.jpg,0,neutral,neutral,picture4.jpg,picture1.jpg,0,threat,threat,picture1.jpg,picture3.jpg,0,neutral,neutral,picture1.jpg,picture9.jpg,0,threat,threat,picture2.jpg,picture4.jpg,0,neutral,neutral,picture3.jpg,picture4.jpg
a3hopybwsr1twr,1,6,172010,1,0,neutral,threat,picture7.jpg,picture2.jpg,0,threat,neutral,picture4.jpg,picture3.jpg,0,neutral,threat,picture9.jpg,picture1.jpg,0,threat,neutral,picture3.jpg,picture7.jpg,1,neutral,neutral,picture6.jpg,picture6.jpg,0,neutral,neutral,picture4.jpg,picture1.jpg,0,neutral,threat,picture1.jpg,picture3.jpg,0,threat,neutral,picture1.jpg,picture9.jpg,0,threat,threat,picture2.jpg,picture4.jpg,0,neutral,neutral,picture3.jpg,picture4.jpg
a3hopybwsr1twr,1,7,333697,1,0,neutral,threat,picture7.jpg,picture2.jpg,0,threat,neutral,picture4.jpg,picture3.jpg,0,neutral,threat,picture9.jpg,picture1.jpg,0,threat,neutral,picture3.jpg,picture7.jpg,1,neutral,neutral,picture6.jpg,picture6.jpg,0,neutral,neutral,picture4.jpg,picture1.jpg,0,neutral,threat,picture1.jpg,picture3.jpg,0,threat,neutral,picture1.jpg,picture9.jpg,0,threat,threat,picture2.jpg,picture4.jpg,0,neutral,neutral,picture3.jpg,picture4.jpg
a3hopybwsr1twr,1,8,335887,1,0,neutral,threat,picture7.jpg,picture2.jpg,0,threat,neutral,picture4.jpg,picture3.jpg,0,neutral,threat,picture9.jpg,picture1.jpg,0,threat,neutral,picture3.jpg,picture7.jpg,1,neutral,neutral,picture6.jpg,picture6.jpg,0,neutral,neutral,picture4.jpg,picture1.jpg,0,neutral,threat,picture1.jpg,picture3.jpg,0,threat,neutral,picture1.jpg,picture9.jpg,0,threat,threat,picture2.jpg,picture4.jpg,0,neutral,neutral,picture3.jpg,picture4.jpg
a3hopybwsr1twr,1,9,338048,2,0,neutral,threat,picture7.jpg,picture2.jpg,0,threat,neutral,picture4.jpg,picture3.jpg,0,neutral,threat,picture9.jpg,picture1.jpg,0,threat,neutral,picture3.jpg,picture7.jpg,1,neutral,neutral,picture6.jpg,picture6.jpg,0,neutral,neutral,picture3.jpg,picture1.jpg,0,neutral,threat,picture1.jpg,picture3.jpg,0,threat,neutral,picture1.jpg,picture9.jpg,0,threat,threat,picture2.jpg,picture4.jpg,1,neutral,neutral,picture4.jpg,picture4.jpg
a3hopybwsr1twr,1,10,339887,2,0,neutral,threat,picture7.jpg,picture2.jpg,0,threat,neutral,picture4.jpg,picture3.jpg,0,neutral,threat,picture9.jpg,picture1.jpg,0,threat,neutral,picture3.jpg,picture7.jpg,1,neutral,neutral,picture6.jpg,picture6.jpg,0,neutral,neutral,picture3.jpg,picture1.jpg,0,threat,threat,picture2.jpg,picture3.jpg,0,threat,neutral,picture1.jpg,picture9.jpg,0,neutral,threat,picture1.jpg,picture4.jpg,1,neutral,neutral,picture4.jpg,picture4.jpg
a3hopybwsr1twr,1,11,342120,2,0,neutral,threat,picture7.jpg,picture2.jpg,0,threat,neutral,picture4.jpg,picture3.jpg,0,neutral,threat,picture9.jpg,picture1.jpg,0,threat,neutral,picture3.jpg,picture7.jpg,1,neutral,neutral,picture6.jpg,picture6.jpg,0,threat,neutral,picture1.jpg,picture1.jpg,0,threat,threat,picture2.jpg,picture3.jpg,0,neutral,neutral,picture3.jpg,picture9.jpg,0,neutral,threat,picture1.jpg,picture4.jpg,1,neutral,neutral,picture4.jpg,picture4.jpg
a3hopybwsr1twr,1,12,344143,2,0,neutral,threat,picture7.jpg,picture2.jpg,0,threat,neutral,picture4.jpg,picture3.jpg,0,neutral,threat,picture9.jpg,picture1.jpg,0,threat,neutral,picture3.jpg,picture7.jpg,1,neutral,neutral,picture6.jpg,picture6.jpg,0,threat,neutral,picture2.jpg,picture1.jpg,0,threat,threat,picture1.jpg,picture3.jpg,0,neutral,neutral,picture3.jpg,picture9.jpg,0,neutral,threat,picture1.jpg,picture4.jpg,1,neutral,neutral,picture4.jpg,picture4.jpg
a3hopybwsr1twr,1,13,346295,2,0,neutral,threat,picture7.jpg,picture2.jpg,0,threat,neutral,picture4.jpg,picture3.jpg,0,threat,threat,picture3.jpg,picture1.jpg,0,neutral,neutral,picture9.jpg,picture7.jpg,1,neutral,neutral,picture6.jpg,picture6.jpg,0,threat,neutral,picture2.jpg,picture1.jpg,0,threat,threat,picture1.jpg,picture3.jpg,0,neutral,neutral,picture3.jpg,picture9.jpg,0,neutral,threat,picture1.jpg,picture4.jpg,1,neutral,neutral,picture4.jpg,picture4.jpg
a3hopybwsr1twr,1,14,348361,2,0,neutral,threat,picture7.jpg,picture2.jpg,0,neutral,neutral,picture9.jpg,picture3.jpg,0,threat,threat,picture3.jpg,picture1.jpg,0,threat,neutral,picture4.jpg,picture7.jpg,1,neutral,neutral,picture6.jpg,picture6.jpg,0,threat,neutral,picture2.jpg,picture1.jpg,0,threat,threat,picture1.jpg,picture3.jpg,0,neutral,neutral,picture3.jpg,picture9.jpg,0,neutral,threat,picture1.jpg,picture4.jpg,1,neutral,neutral,picture4.jpg,picture4.jpg
a3hopybwsr1twr,1,15,350177,2,0,threat,threat,picture1.jpg,picture2.jpg,0,neutral,neutral,picture9.jpg,picture3.jpg,0,threat,threat,picture3.jpg,picture1.jpg,0,threat,neutral,picture4.jpg,picture7.jpg,1,neutral,neutral,picture6.jpg,picture6.jpg,0,threat,neutral,picture2.jpg,picture1.jpg,0,neutral,threat,picture7.jpg,picture3.jpg,0,neutral,neutral,picture3.jpg,picture9.jpg,0,neutral,threat,picture1.jpg,picture4.jpg,1,neutral,neutral,picture4.jpg,picture4.jpg
a3hopybwsr1twr,1,16,352864,2,0,threat,threat,picture1.jpg,picture2.jpg,0,neutral,neutral,picture9.jpg,picture3.jpg,0,threat,threat,picture3.jpg,picture1.jpg,0,threat,neutral,picture4.jpg,picture7.jpg,1,neutral,neutral,picture6.jpg,picture6.jpg,0,threat,neutral,picture2.jpg,picture1.jpg,0,neutral,threat,picture7.jpg,picture3.jpg,0,neutral,neutral,picture3.jpg,picture9.jpg,0,neutral,threat,picture1.jpg,picture4.jpg,1,neutral,neutral,picture4.jpg,picture4.jpg
a3hopybwsr1twr,1,17,354528,2,0,threat,threat,picture1.jpg,picture2.jpg,0,neutral,neutral,picture9.jpg,picture3.jpg,0,threat,threat,picture3.jpg,picture1.jpg,0,threat,neutral,picture4.jpg,picture7.jpg,1,neutral,neutral,picture6.jpg,picture6.jpg,0,threat,neutral,picture2.jpg,picture1.jpg,0,neutral,threat,picture7.jpg,picture3.jpg,0,neutral,neutral,picture1.jpg,picture9.jpg,0,neutral,threat,picture3.jpg,picture4.jpg,1,neutral,neutral,picture4.jpg,picture4.jpg
a3hopybwsr1twr,1,18,357112,3,0,threat,threat,picture3.jpg,picture2.jpg,0,neutral,neutral,picture9.jpg,picture3.jpg,1,threat,threat,picture1.jpg,picture1.jpg,0,threat,neutral,picture4.jpg,picture7.jpg,1,neutral,neutral,picture6.jpg,picture6.jpg,0,threat,neutral,picture2.jpg,picture1.jpg,0,neutral,threat,picture7.jpg,picture3.jpg,0,neutral,neutral,picture1.jpg,picture9.jpg,0,neutral,threat,picture3.jpg,picture4.jpg,1,neutral,neutral,picture4.jpg,picture4.jpg
a3hopybwsr1twr,1,19,359175,3,0,threat,threat,picture3.jpg,picture2.jpg,0,threat,neutral,picture4.jpg,picture3.jpg,1,threat,threat,picture1.jpg,picture1.jpg,0,neutral,neutral,picture9.jpg,picture7.jpg,1,neutral,neutral,picture6.jpg,picture6.jpg,0,threat,neutral,picture2.jpg,picture1.jpg,0,neutral,threat,picture7.jpg,picture3.jpg,0,neutral,neutral,picture1.jpg,picture9.jpg,0,neutral,threat,picture3.jpg,picture4.jpg,1,neutral,neutral,picture4.jpg,picture4.jpg
a3hopybwsr1twr,1,20,361431,3,0,threat,threat,picture4.jpg,picture2.jpg,0,threat,neutral,picture3.jpg,picture3.jpg,1,threat,threat,picture1.jpg,picture1.jpg,0,neutral,neutral,picture9.jpg,picture7.jpg,1,neutral,neutral,picture6.jpg,picture6.jpg,0,threat,neutral,picture2.jpg,picture1.jpg,0,neutral,threat,picture7.jpg,picture3.jpg,0,neutral,neutral,picture1.jpg,picture9.jpg,0,neutral,threat,picture3.jpg,picture4.jpg,1,neutral,neutral,picture4.jpg,picture4.jpg
a3hopybwsr1twr,1,21,364064,4,1,threat,threat,picture2.jpg,picture2.jpg,0,threat,neutral,picture3.jpg,picture3.jpg,1,threat,threat,picture1.jpg,picture1.jpg,0,neutral,neutral,picture9.jpg,picture7.jpg,1,neutral,neutral,picture6.jpg,picture6.jpg,0,threat,neutral,picture4.jpg,picture1.jpg,0,neutral,threat,picture7.jpg,picture3.jpg,0,neutral,neutral,picture1.jpg,picture9.jpg,0,neutral,threat,picture3.jpg,picture4.jpg,1,neutral,neutral,picture4.jpg,picture4.jpg
a3hopybwsr1twr,1,22,386021,5,1,threat,threat,picture2.jpg,picture2.jpg,0,threat,neutral,picture3.jpg,picture3.jpg,1,threat,threat,picture1.jpg,picture1.jpg,0,neutral,neutral,picture9.jpg,picture7.jpg,1,neutral,neutral,picture6.jpg,picture6.jpg,1,neutral,neutral,picture1.jpg,picture1.jpg,0,threat,threat,picture4.jpg,picture3.jpg,0,neutral,neutral,picture7.jpg,picture9.jpg,0,neutral,threat,picture3.jpg,picture4.jpg,1,neutral,neutral,picture4.jpg,picture4.jpg
a3hopybwsr1twr,1,23,389132,6,1,threat,threat,picture2.jpg,picture2.jpg,0,threat,neutral,picture3.jpg,picture3.jpg,1,threat,threat,picture1.jpg,picture1.jpg,0,neutral,neutral,picture9.jpg,picture7.jpg,1,neutral,neutral,picture6.jpg,picture6.jpg,1,neutral,neutral,picture1.jpg,picture1.jpg,0,neutral,threat,picture3.jpg,picture3.jpg,0,neutral,neutral,picture7.jpg,picture9.jpg,1,threat,threat,picture4.jpg,picture4.jpg,1,neutral,neutral,picture4.jpg,picture4.jpg
a3hopybwsr1twr,1,24,392449,6,1,threat,threat,picture2.jpg,picture2.jpg,0,threat,neutral,picture3.jpg,picture3.jpg,1,threat,threat,picture1.jpg,picture1.jpg,0,neutral,neutral,picture9.jpg,picture7.jpg,1,neutral,neutral,picture6.jpg,picture6.jpg,1,neutral,neutral,picture1.jpg,picture1.jpg,0,neutral,threat,picture7.jpg,picture3.jpg,0,neutral,neutral,picture3.jpg,picture9.jpg,1,threat,threat,picture4.jpg,picture4.jpg,1,neutral,neutral,picture4.jpg,picture4.jpg
a3hopybwsr1twr,1,25,395445,6,1,threat,threat,picture2.jpg,picture2.jpg,0,threat,neutral,picture3.jpg,picture3.jpg,1,threat,threat,picture1.jpg,picture1.jpg,0,neutral,neutral,picture9.jpg,picture7.jpg,1,neutral,neutral,picture6.jpg,picture6.jpg,1,neutral,neutral,picture1.jpg,picture1.jpg,0,neutral,threat,picture3.jpg,picture3.jpg,0,neutral,neutral,picture7.jpg,picture9.jpg,1,threat,threat,picture4.jpg,picture4.jpg,1,neutral,neutral,picture4.jpg,picture4.jpg
a3hopybwsr1twr,1,26,398426,8,1,threat,threat,picture2.jpg,picture2.jpg,1,neutral,neutral,picture3.jpg,picture3.jpg,1,threat,threat,picture1.jpg,picture1.jpg,0,neutral,neutral,picture9.jpg,picture7.jpg,1,neutral,neutral,picture6.jpg,picture6.jpg,1,neutral,neutral,picture1.jpg,picture1.jpg,1,threat,threat,picture3.jpg,picture3.jpg,0,neutral,neutral,picture7.jpg,picture9.jpg,1,threat,threat,picture4.jpg,picture4.jpg,1,neutral,neutral,picture4.jpg,picture4.jpg
a3hopybwsr1twr,1,27,401425,10,1,threat,threat,picture2.jpg,picture2.jpg,1,neutral,neutral,picture3.jpg,picture3.jpg,1,threat,threat,picture1.jpg,picture1.jpg,1,neutral,neutral,picture7.jpg,picture7.jpg,1,neutral,neutral,picture6.jpg,picture6.jpg,1,neutral,neutral,picture1.jpg,picture1.jpg,1,threat,threat,picture3.jpg,picture3.jpg,1,neutral,neutral,picture9.jpg,picture9.jpg,1,threat,threat,picture4.jpg,picture4.jpg,1,neutral,neutral,picture4.jpg,picture4.jpg
a3hopybwsr1twr,2,1,29116,10,1,threat,threat,picture2.jpg,picture2.jpg,1,neutral,neutral,picture3.jpg,picture3.jpg,1,threat,threat,picture1.jpg,picture1.jpg,1,neutral,neutral,picture7.jpg,picture7.jpg,1,neutral,neutral,picture6.jpg,picture6.jpg,1,neutral,neutral,picture1.jpg,picture1.jpg,1,threat,threat,picture3.jpg,picture3.jpg,1,neutral,neutral,picture9.jpg,picture9.jpg,1,threat,threat,picture4.jpg,picture4.jpg,1,neutral,neutral,picture4.jpg,picture4.jpg
a3hopybwsr1twr,3,1,55073,10,1,threat,threat,picture2.jpg,picture2.jpg,1,neutral,neutral,picture3.jpg,picture3.jpg,1,threat,threat,picture1.jpg,picture1.jpg,1,neutral,neutral,picture7.jpg,picture7.jpg,1,neutral,neutral,picture6.jpg,picture6.jpg,1,neutral,neutral,picture1.jpg,picture1.jpg,1,threat,threat,picture3.jpg,picture3.jpg,1,neutral,neutral,picture9.jpg,picture9.jpg,1,threat,threat,picture4.jpg,picture4.jpg,1,neutral,neutral,picture4.jpg,picture4.jpg
a3hopybwsr1twr,4,1,31599,10,1,threat,threat,picture2.jpg,picture2.jpg,1,neutral,neutral,picture3.jpg,picture3.jpg,1,threat,threat,picture1.jpg,picture1.jpg,1,neutral,neutral,picture7.jpg,picture7.jpg,1,neutral,neutral,picture6.jpg,picture6.jpg,1,neutral,neutral,picture1.jpg,picture1.jpg,1,threat,threat,picture3.jpg,picture3.jpg,1,neutral,neutral,picture9.jpg,picture9.jpg,1,threat,threat,picture4.jpg,picture4.jpg,1,neutral,neutral,picture4.jpg,picture4.jpg
aaislve5u7epm,1,1,84660,1,0,neutral,neutral,picture2.jpg,picture8.jpg,0,neutral,threat,picture5.jpg,picture2.jpg,0,neutral,threat,picture6.jpg,picture4.jpg,1,neutral,neutral,picture1.jpg,picture1.jpg,0,threat,neutral,picture1.jpg,picture2.jpg,0,neutral,neutral,picture10.jpg,picture6.jpg,0,threat,threat,picture3.jpg,picture1.jpg,0,threat,threat,picture4.jpg,picture3.jpg,0,neutral,neutral,picture8.jpg,picture5.jpg,0,threat,neutral,picture2.jpg,picture10.jpg
aaislve5u7epm,1,2,110450,1,0,neutral,neutral,picture5.jpg,picture8.jpg,0,neutral,threat,picture2.jpg,picture2.jpg,0,threat,threat,picture1.jpg,picture4.jpg,1,neutral,neutral,picture1.jpg,picture1.jpg,0,neutral,neutral,picture6.jpg,picture2.jpg,0,threat,neutral,picture3.jpg,picture6.jpg,0,neutral,threat,picture10.jpg,picture1.jpg,0,threat,threat,picture4.jpg,picture3.jpg,0,threat,neutral,picture2.jpg,picture5.jpg,0,neutral,neutral,picture8.jpg,picture10.jpg
aaislve5u7epm,1,3,113757,1,0,neutral,neutral,picture5.jpg,picture8.jpg,0,neutral,threat,picture2.jpg,picture2.jpg,0,threat,threat,picture1.jpg,picture4.jpg,1,neutral,neutral,picture1.jpg,picture1.jpg,0,neutral,neutral,picture6.jpg,picture2.jpg,0,threat,neutral,picture3.jpg,picture6.jpg,0,neutral,threat,picture10.jpg,picture1.jpg,0,threat,threat,picture4.jpg,picture3.jpg,0,threat,neutral,picture2.jpg,picture5.jpg,0,neutral,neutral,picture8.jpg,picture10.jpg
aaislve5u7epm,1,4,114814,1,0,neutral,neutral,picture5.jpg,picture8.jpg,0,neutral,threat,picture2.jpg,picture2.jpg,0,threat,threat,picture1.jpg,picture4.jpg,1,neutral,neutral,picture1.jpg,picture1.jpg,0,neutral,neutral,picture6.jpg,picture2.jpg,0,threat,neutral,picture3.jpg,picture6.jpg,0,neutral,threat,picture10.jpg,picture1.jpg,0,threat,threat,picture4.jpg,picture3.jpg,0,threat,neutral,picture2.jpg,picture5.jpg,0,neutral,neutral,picture8.jpg,picture10.jpg
aaislve5u7epm,1,5,118530,1,0,neutral,neutral,picture5.jpg,picture8.jpg,0,neutral,threat,picture2.jpg,picture2.jpg,0,threat,threat,picture1.jpg,picture4.jpg,1,neutral,neutral,picture1.jpg,picture1.jpg,0,neutral,neutral,picture10.jpg,picture2.jpg,0,threat,neutral,picture3.jpg,picture6.jpg,0,neutral,threat,picture6.jpg,picture1.jpg,0,threat,threat,picture4.jpg,picture3.jpg,0,threat,neutral,picture2.jpg,picture5.jpg,0,neutral,neutral,picture8.jpg,picture10.jpg
aaislve5u7epm,1,6,126150,1,0,neutral,neutral,picture5.jpg,picture8.jpg,0,neutral,threat,picture2.jpg,picture2.jpg,0,neutral,threat,picture10.jpg,picture4.jpg,1,neutral,neutral,picture1.jpg,picture1.jpg,0,threat,neutral,picture1.jpg,picture2.jpg,0,threat,neutral,picture3.jpg,picture6.jpg,0,neutral,threat,picture6.jpg,picture1.jpg,0,threat,threat,picture4.jpg,picture3.jpg,0,threat,neutral,picture2.jpg,picture5.jpg,0,neutral,neutral,picture8.jpg,picture10.jpg
aaislve5u7epm,1,7,129527,1,0,neutral,neutral,picture5.jpg,picture8.jpg,0,neutral,threat,picture10.jpg,picture2.jpg,0,neutral,threat,picture2.jpg,picture4.jpg,1,neutral,neutral,picture1.jpg,picture1.jpg,0,threat,neutral,picture1.jpg,picture2.jpg,0,threat,neutral,picture3.jpg,picture6.jpg,0,neutral,threat,picture6.jpg,picture1.jpg,0,threat,threat,picture4.jpg,picture3.jpg,0,threat,neutral,picture2.jpg,picture5.jpg,0,neutral,neutral,picture8.jpg,picture10.jpg
aaislve5u7epm,1,8,132778,1,0,neutral,neutral,picture10.jpg,picture8.jpg,0,neutral,threat,picture5.jpg,picture2.jpg,0,neutral,threat,picture2.jpg,picture4.jpg,1,neutral,neutral,picture1.jpg,picture1.jpg,0,threat,neutral,picture1.jpg,picture2.jpg,0,threat,neutral,picture3.jpg,picture6.jpg,0,neutral,threat,picture6.jpg,picture1.jpg,0,threat,threat,picture4.jpg,picture3.jpg,0,threat,neutral,picture2.jpg,picture5.jpg,0,neutral,neutral,picture8.jpg,picture10.jpg
aaislve5u7epm,1,9,138753,1,0,threat,neutral,picture1.jpg,picture8.jpg,0,neutral,threat,picture5.jpg,picture2.jpg,0,neutral,threat,picture2.jpg,picture4.jpg,1,neutral,neutral,picture1.jpg,picture1.jpg,0,neutral,neutral,picture10.jpg,picture2.jpg,0,threat,neutral,picture3.jpg,picture6.jpg,0,neutral,threat,picture6.jpg,picture1.jpg,0,threat,threat,picture4.jpg,picture3.jpg,0,threat,neutral,picture2.jpg,picture5.jpg,0,neutral,neutral,picture8.jpg,picture10.jpg
aaislve5u7epm,1,10,141903,2,0,threat,neutral,picture1.jpg,picture8.jpg,0,neutral,threat,picture5.jpg,picture2.jpg,0,neutral,threat,picture2.jpg,picture4.jpg,1,neutral,neutral,picture1.jpg,picture1.jpg,0,neutral,neutral,picture8.jpg,picture2.jpg,0,threat,neutral,picture3.jpg,picture6.jpg,0,neutral,threat,picture6.jpg,picture1.jpg,0,threat,threat,picture4.jpg,picture3.jpg,0,threat,neutral,picture2.jpg,picture5.jpg,1,neutral,neutral,picture10.jpg,picture10.jpg
aaislve5u7epm,1,11,146128,2,0,threat,neutral,picture1.jpg,picture8.jpg,0,neutral,threat,picture5.jpg,picture2.jpg,0,neutral,threat,picture2.jpg,picture4.jpg,1,neutral,neutral,picture1.jpg,picture1.jpg,0,neutral,neutral,picture6.jpg,picture2.jpg,0,threat,neutral,picture3.jpg,picture6.jpg,0,neutral,threat,picture8.jpg,picture1.jpg,0,threat,threat,picture4.jpg,picture3.jpg,0,threat,neutral,picture2.jpg,picture5.jpg,1,neutral,neutral,picture10.jpg,picture10.jpg
aaislve5u7epm,1,12,149339,2,0,threat,neutral,picture1.jpg,picture8.jpg,0,neutral,threat,picture5.jpg,picture2.jpg,0,neutral,threat,picture2.jpg,picture4.jpg,1,neutral,neutral,picture1.jpg,picture1.jpg,0,neutral,neutral,picture6.jpg,picture2.jpg,0,threat,neutral,picture3.jpg,picture6.jpg,0,threat,threat,picture4.jpg,picture1.jpg,0,neutral,threat,picture8.jpg,picture3.jpg,0,threat,neutral,picture2.jpg,picture5.jpg,1,neutral,neutral,picture10.jpg,picture10.jpg
aaislve5u7epm,1,13,152369,3,0,threat,neutral,picture1.jpg,picture8.jpg,0,neutral,threat,picture5.jpg,picture2.jpg,0,neutral,threat,picture2.jpg,picture4.jpg,1,neutral,neutral,picture1.jpg,picture1.jpg,0,neutral,neutral,picture6.jpg,picture2.jpg,0,neutral,neutral,picture8.jpg,picture6.jpg,0,threat,threat,picture4.jpg,picture1.jpg,1,threat,threat,picture3.jpg,picture3.jpg,0,threat,neutral,picture2.jpg,picture5.jpg,1,neutral,neutral,picture10.jpg,picture10.jpg
aaislve5u7epm,1,14,156385,3,0,threat,neutral,picture1.jpg,picture8.jpg,0,neutral,threat,picture5.jpg,picture2.jpg,0,neutral,threat,picture2.jpg,picture4.jpg,1,neutral,neutral,picture1.jpg,picture1.jpg,0,neutral,neutral,picture6.jpg,picture2.jpg,0,threat,neutral,picture2.jpg,picture6.jpg,0,threat,threat,picture4.jpg,picture1.jpg,1,threat,threat,picture3.jpg,picture3.jpg,0,neutral,neutral,picture8.jpg,picture5.jpg,1,neutral,neutral,picture10.jpg,picture10.jpg
aaislve5u7epm,1,15,160391,3,0,threat,neutral,picture1.jpg,picture8.jpg,0,neutral,threat,picture5.jpg,picture2.jpg,0,neutral,threat,picture2.jpg,picture4.jpg,1,neutral,neutral,picture1.jpg,picture1.jpg,0,neutral,neutral,picture6.jpg,picture2.jpg,0,threat,neutral,picture4.jpg,picture6.jpg,0,threat,threat,picture2.jpg,picture1.jpg,1,threat,threat,picture3.jpg,picture3.jpg,0,neutral,neutral,picture8.jpg,picture5.jpg,1,neutral,neutral,picture10.jpg,picture10.jpg
aaislve5u7epm,1,16,164494,4,1,neutral,neutral,picture8.jpg,picture8.jpg,0,neutral,threat,picture5.jpg,picture2.jpg,0,neutral,threat,picture2.jpg,picture4.jpg,1,neutral,neutral,picture1.jpg,picture1.jpg,0,neutral,neutral,picture6.jpg,picture2.jpg,0,threat,neutral,picture4.jpg,picture6.jpg,0,threat,threat,picture2.jpg,picture1.jpg,1,threat,threat,picture3.jpg,picture3.jpg,0,threat,neutral,picture1.jpg,picture5.jpg,1,neutral,neutral,picture10.jpg,picture10.jpg
aaislve5u7epm,1,17,168917,5,1,neutral,neutral,picture8.jpg,picture8.jpg,0,neutral,threat,picture5.jpg,picture2.jpg,1,threat,threat,picture4.jpg,picture4.jpg,1,neutral,neutral,picture1.jpg,picture1.jpg,0,neutral,neutral,picture6.jpg,picture2.jpg,0,neutral,neutral,picture2.jpg,picture6.jpg,0,threat,threat,picture2.jpg,picture1.jpg,1,threat,threat,picture3.jpg,picture3.jpg,0,threat,neutral,picture1.jpg,picture5.jpg,1,neutral,neutral,picture10.jpg,picture10.jpg
aaislve5u7epm,1,18,174239,5,1,neutral,neutral,picture8.jpg,picture8.jpg,0,neutral,threat,picture6.jpg,picture2.jpg,1,threat,threat,picture4.jpg,picture4.jpg,1,neutral,neutral,picture1.jpg,picture1.jpg,0,neutral,neutral,picture5.jpg,picture2.jpg,0,neutral,neutral,picture2.jpg,picture6.jpg,0,threat,threat,picture2.jpg,picture1.jpg,1,threat,threat,picture3.jpg,picture3.jpg,0,threat,neutral,picture1.jpg,picture5.jpg,1,neutral,neutral,picture10.jpg,picture10.jpg
aaislve5u7epm,1,19,176911,5,1,neutral,neutral,picture8.jpg,picture8.jpg,0,neutral,threat,picture6.jpg,picture2.jpg,1,threat,threat,picture4.jpg,picture4.jpg,1,neutral,neutral,picture1.jpg,picture1.jpg,0,threat,neutral,picture2.jpg,picture2.jpg,0,neutral,neutral,picture2.jpg,picture6.jpg,0,neutral,threat,picture5.jpg,picture1.jpg,1,threat,threat,picture3.jpg,picture3.jpg,0,threat,neutral,picture1.jpg,picture5.jpg,1,neutral,neutral,picture10.jpg,picture10.jpg
aaislve5u7epm,1,20,180027,7,1,neutral,neutral,picture8.jpg,picture8.jpg,0,neutral,threat,picture6.jpg,picture2.jpg,1,threat,threat,picture4.jpg,picture4.jpg,1,neutral,neutral,picture1.jpg,picture1.jpg,0,threat,neutral,picture2.jpg,picture2.jpg,0,neutral,neutral,picture2.jpg,picture6.jpg,1,threat,threat,picture1.jpg,picture1.jpg,1,threat,threat,picture3.jpg,picture3.jpg,1,neutral,neutral,picture5.jpg,picture5.jpg,1,neutral,neutral,picture10.jpg,picture10.jpg
aaislve5u7epm,1,21,189966,7,1,neutral,neutral,picture8.jpg,picture8.jpg,0,neutral,threat,picture2.jpg,picture2.jpg,1,threat,threat,picture4.jpg,picture4.jpg,1,neutral,neutral,picture1.jpg,picture1.jpg,0,neutral,neutral,picture6.jpg,picture2.jpg,0,threat,neutral,picture2.jpg,picture6.jpg,1,threat,threat,picture1.jpg,picture1.jpg,1,threat,threat,picture3.jpg,picture3.jpg,1,neutral,neutral,picture5.jpg,picture5.jpg,1,neutral,neutral,picture10.jpg,picture10.jpg
aaislve5u7epm,1,22,193303,8,1,neutral,neutral,picture8.jpg,picture8.jpg,0,neutral,threat,picture2.jpg,picture2.jpg,1,threat,threat,picture4.jpg,picture4.jpg,1,neutral,neutral,picture1.jpg,picture1.jpg,0,threat,neutral,picture2.jpg,picture2.jpg,1,neutral,neutral,picture6.jpg,picture6.jpg,1,threat,threat,picture1.jpg,picture1.jpg,1,threat,threat,picture3.jpg,picture3.jpg,1,neutral,neutral,picture5.jpg,picture5.jpg,1,neutral,neutral,picture10.jpg,picture10.jpg
aaislve5u7epm,1,23,197565,10,1,neutral,neutral,picture8.jpg,picture8.jpg,1,threat,threat,picture2.jpg,picture2.jpg,1,threat,threat,picture4.jpg,picture4.jpg,1,neutral,neutral,picture1.jpg,picture1.jpg,1,neutral,neutral,picture2.jpg,picture2.jpg,1,neutral,neutral,picture6.jpg,picture6.jpg,1,threat,threat,picture1.jpg,picture1.jpg,1,threat,threat,picture3.jpg,picture3.jpg,1,neutral,neutral,picture5.jpg,picture5.jpg,1,neutral,neutral,picture10.jpg,picture10.jpg
aaislve5u7epm,2,1,43504,10,1,neutral,neutral,picture8.jpg,picture8.jpg,1,threat,threat,picture2.jpg,picture2.jpg,1,threat,threat,picture4.jpg,picture4.jpg,1,neutral,neutral,picture1.jpg,picture1.jpg,1,neutral,neutral,picture2.jpg,picture2.jpg,1,neutral,neutral,picture6.jpg,picture6.jpg,1,threat,threat,picture1.jpg,picture1.jpg,1,threat,threat,picture3.jpg,picture3.jpg,1,neutral,neutral,picture5.jpg,picture5.jpg,1,neutral,neutral,picture10.jpg,picture10.jpg
aaislve5u7epm,3,1,38630,10,1,neutral,neutral,picture8.jpg,picture8.jpg,1,threat,threat,picture2.jpg,picture2.jpg,1,threat,threat,picture4.jpg,picture4.jpg,1,neutral,neutral,picture1.jpg,picture1.jpg,1,neutral,neutral,picture2.jpg,picture2.jpg,1,neutral,neutral,picture6.jpg,picture6.jpg,1,threat,threat,picture1.jpg,picture1.jpg,1,threat,threat,picture3.jpg,picture3.jpg,1,neutral,neutral,picture5.jpg,picture5.jpg,1,neutral,neutral,picture10.jpg,picture10.jpg
aaislve5u7epm,4,1,28741,10,1,neutral,neutral,picture8.jpg,picture8.jpg,1,threat,threat,picture2.jpg,picture2.jpg,1,threat,threat,picture4.jpg,picture4.jpg,1,neutral,neutral,picture1.jpg,picture1.jpg,1,neutral,neutral,picture2.jpg,picture2.jpg,1,neutral,neutral,picture6.jpg,picture6.jpg,1,threat,threat,picture1.jpg,picture1.jpg,1,threat,threat,picture3.jpg,picture3.jpg,1,neutral,neutral,picture5.jpg,picture5.jpg,1,neutral,neutral,picture10.jpg,picture10.jpg
a2y8lzs5c81o25,1,1,451501,0,0,neutral,neutral,picture1.jpg,picture7.jpg,0,threat,threat,picture1.jpg,picture4.jpg,0,threat,threat,picture2.jpg,picture3.jpg,0,neutral,neutral,picture5.jpg,picture6.jpg,0,neutral,neutral,picture6.jpg,picture5.jpg,0,threat,neutral,picture3.jpg,picture10.jpg,0,neutral,threat,picture7.jpg,picture1.jpg,0,neutral,neutral,picture10.jpg,picture1.jpg,0,neutral,threat,picture8.jpg,picture2.jpg,0,threat,neutral,picture4.jpg,picture8.jpg
a2y8lzs5c81o25,1,2,746280,0,0,threat,neutral,picture3.jpg,picture7.jpg,0,threat,threat,picture1.jpg,picture4.jpg,0,threat,threat,picture2.jpg,picture3.jpg,0,threat,neutral,picture4.jpg,picture6.jpg,0,neutral,neutral,picture7.jpg,picture5.jpg,0,neutral,neutral,picture1.jpg,picture10.jpg,0,neutral,threat,picture5.jpg,picture1.jpg,0,neutral,neutral,picture10.jpg,picture1.jpg,0,neutral,threat,picture8.jpg,picture2.jpg,0,neutral,neutral,picture6.jpg,picture8.jpg
a2y8lzs5c81o25,1,3,762795,2,0,neutral,neutral,picture1.jpg,picture7.jpg,0,neutral,threat,picture5.jpg,picture4.jpg,0,neutral,threat,picture8.jpg,picture3.jpg,1,neutral,neutral,picture6.jpg,picture6.jpg,0,neutral,neutral,picture7.jpg,picture5.jpg,0,threat,neutral,picture3.jpg,picture10.jpg,0,threat,threat,picture4.jpg,picture1.jpg,0,neutral,neutral,picture10.jpg,picture1.jpg,1,threat,threat,picture2.jpg,picture2.jpg,0,threat,neutral,picture1.jpg,picture8.jpg
a2y8lzs5c81o25,1,4,774853,3,1,neutral,neutral,picture7.jpg,picture7.jpg,0,neutral,threat,picture5.jpg,picture4.jpg,0,neutral,threat,picture8.jpg,picture3.jpg,1,neutral,neutral,picture6.jpg,picture6.jpg,0,neutral,neutral,picture1.jpg,picture5.jpg,0,threat,neutral,picture3.jpg,picture10.jpg,0,threat,threat,picture4.jpg,picture1.jpg,0,neutral,neutral,picture10.jpg,picture1.jpg,1,threat,threat,picture2.jpg,picture2.jpg,0,threat,neutral,picture1.jpg,picture8.jpg
a2y8lzs5c81o25,1,5,798543,2,1,neutral,neutral,picture7.jpg,picture7.jpg,0,neutral,threat,picture8.jpg,picture4.jpg,0,neutral,threat,picture5.jpg,picture3.jpg,1,neutral,neutral,picture6.jpg,picture6.jpg,0,neutral,neutral,picture1.jpg,picture5.jpg,0,threat,neutral,picture2.jpg,picture10.jpg,0,neutral,threat,picture10.jpg,picture1.jpg,0,threat,neutral,picture4.jpg,picture1.jpg,0,threat,threat,picture3.jpg,picture2.jpg,0,threat,neutral,picture1.jpg,picture8.jpg
a2y8lzs5c81o25,1,6,800431,2,1,neutral,neutral,picture7.jpg,picture7.jpg,0,neutral,threat,picture8.jpg,picture4.jpg,0,neutral,threat,picture5.jpg,picture3.jpg,1,neutral,neutral,picture6.jpg,picture6.jpg,0,neutral,neutral,picture1.jpg,picture5.jpg,0,threat,neutral,picture2.jpg,picture10.jpg,0,neutral,threat,picture10.jpg,picture1.jpg,0,threat,neutral,picture4.jpg,picture1.jpg,0,threat,threat,picture3.jpg,picture2.jpg,0,threat,neutral,picture1.jpg,picture8.jpg
a2y8lzs5c81o25,1,7,803773,3,1,neutral,neutral,picture7.jpg,picture7.jpg,0,neutral,threat,picture8.jpg,picture4.jpg,0,neutral,threat,picture5.jpg,picture3.jpg,1,neutral,neutral,picture6.jpg,picture6.jpg,0,neutral,neutral,picture1.jpg,picture5.jpg,0,threat,neutral,picture2.jpg,picture10.jpg,1,threat,threat,picture1.jpg,picture1.jpg,0,threat,neutral,picture4.jpg,picture1.jpg,0,threat,threat,picture3.jpg,picture2.jpg,0,neutral,neutral,picture10.jpg,picture8.jpg
a2y8lzs5c81o25,1,8,811100,3,1,neutral,neutral,picture7.jpg,picture7.jpg,0,neutral,threat,picture8.jpg,picture4.jpg,0,neutral,threat,picture5.jpg,picture3.jpg,1,neutral,neutral,picture6.jpg,picture6.jpg,0,threat,neutral,picture2.jpg,picture5.jpg,0,neutral,neutral,picture1.jpg,picture10.jpg,1,threat,threat,picture1.jpg,picture1.jpg,0,threat,neutral,picture4.jpg,picture1.jpg,0,threat,threat,picture3.jpg,picture2.jpg,0,neutral,neutral,picture10.jpg,picture8.jpg
a2y8lzs5c81o25,1,9,815278,4,1,neutral,neutral,picture7.jpg,picture7.jpg,0,neutral,threat,picture10.jpg,picture4.jpg,0,neutral,threat,picture5.jpg,picture3.jpg,1,neutral,neutral,picture6.jpg,picture6.jpg,0,threat,neutral,picture2.jpg,picture5.jpg,0,neutral,neutral,picture1.jpg,picture10.jpg,1,threat,threat,picture1.jpg,picture1.jpg,0,threat,neutral,picture4.jpg,picture1.jpg,0,threat,threat,picture3.jpg,picture2.jpg,1,neutral,neutral,picture8.jpg,picture8.jpg
a2y8lzs5c81o25,1,10,820224,5,1,neutral,neutral,picture7.jpg,picture7.jpg,0,neutral,threat,picture10.jpg,picture4.jpg,0,threat,threat,picture2.jpg,picture3.jpg,1,neutral,neutral,picture6.jpg,picture6.jpg,1,neutral,neutral,picture5.jpg,picture5.jpg,0,neutral,neutral,picture1.jpg,picture10.jpg,1,threat,threat,picture1.jpg,picture1.jpg,0,threat,neutral,picture4.jpg,picture1.jpg,0,threat,threat,picture3.jpg,picture2.jpg,1,neutral,neutral,picture8.jpg,picture8.jpg
a2y8lzs5c81o25,1,11,827740,5,1,neutral,neutral,picture7.jpg,picture7.jpg,0,threat,threat,picture3.jpg,picture4.jpg,0,threat,threat,picture2.jpg,picture3.jpg,1,neutral,neutral,picture6.jpg,picture6.jpg,1,neutral,neutral,picture5.jpg,picture5.jpg,0,neutral,neutral,picture1.jpg,picture10.jpg,1,threat,threat,picture1.jpg,picture1.jpg,0,threat,neutral,picture4.jpg,picture1.jpg,0,neutral,threat,picture10.jpg,picture2.jpg,1,neutral,neutral,picture8.jpg,picture8.jpg
a2y8lzs5c81o25,1,12,831568,6,1,neutral,neutral,picture7.jpg,picture7.jpg,0,threat,threat,picture2.jpg,picture4.jpg,1,threat,threat,picture3.jpg,picture3.jpg,1,neutral,neutral,picture6.jpg,picture6.jpg,1,neutral,neutral,picture5.jpg,picture5.jpg,0,neutral,neutral,picture1.jpg,picture10.jpg,1,threat,threat,picture1.jpg,picture1.jpg,0,threat,neutral,picture4.jpg,picture1.jpg,0,neutral,threat,picture10.jpg,picture2.jpg,1,neutral,neutral,picture8.jpg,picture8.jpg
a2y8lzs5c81o25,1,13,837273,7,1,neutral,neutral,picture7.jpg,picture7.jpg,1,threat,threat,picture4.jpg,picture4.jpg,1,threat,threat,picture3.jpg,picture3.jpg,1,neutral,neutral,picture6.jpg,picture6.jpg,1,neutral,neutral,picture5.jpg,picture5.jpg,0,neutral,neutral,picture1.jpg,picture10.jpg,1,threat,threat,picture1.jpg,picture1.jpg,0,threat,neutral,picture2.jpg,picture1.jpg,0,neutral,threat,picture10.jpg,picture2.jpg,1,neutral,neutral,picture8.jpg,picture8.jpg
a2y8lzs5c81o25,1,14,848083,10,1,neutral,neutral,picture7.jpg,picture7.jpg,1,threat,threat,picture4.jpg,picture4.jpg,1,threat,threat,picture3.jpg,picture3.jpg,1,neutral,neutral,picture6.jpg,picture6.jpg,1,neutral,neutral,picture5.jpg,picture5.jpg,1,neutral,neutral,picture10.jpg,picture10.jpg,1,threat,threat,picture1.jpg,picture1.jpg,1,neutral,neutral,picture1.jpg,picture1.jpg,1,threat,threat,picture2.jpg,picture2.jpg,1,neutral,neutral,picture8.jpg,picture8.jpg
a2y8lzs5c81o25,2,1,35484,10,1,neutral,neutral,picture7.jpg,picture7.jpg,1,threat,threat,picture4.jpg,picture4.jpg,1,threat,threat,picture3.jpg,picture3.jpg,1,neutral,neutral,picture6.jpg,picture6.jpg,1,neutral,neutral,picture5.jpg,picture5.jpg,1,neutral,neutral,picture10.jpg,picture10.jpg,1,threat,threat,picture1.jpg,picture1.jpg,1,neutral,neutral,picture1.jpg,picture1.jpg,1,threat,threat,picture2.jpg,picture2.jpg,1,neutral,neutral,picture8.jpg,picture8.jpg
a2y8lzs5c81o25,3,1,28589,10,1,neutral,neutral,picture7.jpg,picture7.jpg,1,threat,threat,picture4.jpg,picture4.jpg,1,threat,threat,picture3.jpg,picture3.jpg,1,neutral,neutral,picture6.jpg,picture6.jpg,1,neutral,neutral,picture5.jpg,picture5.jpg,1,neutral,neutral,picture10.jpg,picture10.jpg,1,threat,threat,picture1.jpg,picture1.jpg,1,neutral,neutral,picture1.jpg,picture1.jpg,1,threat,threat,picture2.jpg,picture2.jpg,1,neutral,neutral,picture8.jpg,picture8.jpg
a2y8lzs5c81o25,4,1,37595,10,1,neutral,neutral,picture7.jpg,picture7.jpg,1,threat,threat,picture4.jpg,picture4.jpg,1,threat,threat,picture3.jpg,picture3.jpg,1,neutral,neutral,picture6.jpg,picture6.jpg,1,neutral,neutral,picture5.jpg,picture5.jpg,1,neutral,neutral,picture10.jpg,picture10.jpg,1,threat,threat,picture1.jpg,picture1.jpg,1,neutral,neutral,picture1.jpg,picture1.jpg,1,threat,threat,picture2.jpg,picture2.jpg,1,neutral,neutral,picture8.jpg,picture8.jpg
a3lxaru55pr281,1,1,34747,2,0,neutral,threat,picture7.jpg,picture2.jpg,0,threat,neutral,picture2.jpg,picture9.jpg,0,neutral,threat,picture8.jpg,picture1.jpg,0,neutral,neutral,picture9.jpg,picture1.jpg,0,neutral,neutral,picture1.jpg,picture7.jpg,0,threat,neutral,picture1.jpg,picture2.jpg,1,threat,threat,picture3.jpg,picture3.jpg,0,neutral,threat,picture2.jpg,picture4.jpg,0,threat,neutral,picture4.jpg,picture8.jpg,1,neutral,neutral,picture10.jpg,picture10.jpg
a3lxaru55pr281,1,2,48673,3,0,neutral,threat,picture7.jpg,picture2.jpg,0,threat,neutral,picture2.jpg,picture9.jpg,0,neutral,threat,picture8.jpg,picture1.jpg,0,neutral,neutral,picture9.jpg,picture1.jpg,0,neutral,neutral,picture1.jpg,picture7.jpg,0,threat,neutral,picture1.jpg,picture2.jpg,1,threat,threat,picture3.jpg,picture3.jpg,1,threat,threat,picture4.jpg,picture4.jpg,0,neutral,neutral,picture2.jpg,picture8.jpg,1,neutral,neutral,picture10.jpg,picture10.jpg
a3lxaru55pr281,1,3,53966,4,0,neutral,threat,picture7.jpg,picture2.jpg,0,threat,neutral,picture2.jpg,picture9.jpg,0,neutral,threat,picture8.jpg,picture1.jpg,0,neutral,neutral,picture9.jpg,picture1.jpg,0,neutral,neutral,picture1.jpg,picture7.jpg,1,neutral,neutral,picture2.jpg,picture2.jpg,1,threat,threat,picture3.jpg,picture3.jpg,1,threat,threat,picture4.jpg,picture4.jpg,0,threat,neutral,picture1.jpg,picture8.jpg,1,neutral,neutral,picture10.jpg,picture10.jpg
a3lxaru55pr281,1,4,58764,5,1,threat,threat,picture2.jpg,picture2.jpg,0,neutral,neutral,picture7.jpg,picture9.jpg,0,neutral,threat,picture8.jpg,picture1.jpg,0,neutral,neutral,picture9.jpg,picture1.jpg,0,neutral,neutral,picture1.jpg,picture7.jpg,1,neutral,neutral,picture2.jpg,picture2.jpg,1,threat,threat,picture3.jpg,picture3.jpg,1,threat,threat,picture4.jpg,picture4.jpg,0,threat,neutral,picture1.jpg,picture8.jpg,1,neutral,neutral,picture10.jpg,picture10.jpg
a3lxaru55pr281,1,5,63057,5,1,threat,threat,picture2.jpg,picture2.jpg,0,neutral,neutral,picture8.jpg,picture9.jpg,0,neutral,threat,picture7.jpg,picture1.jpg,0,neutral,neutral,picture9.jpg,picture1.jpg,0,neutral,neutral,picture1.jpg,picture7.jpg,1,neutral,neutral,picture2.jpg,picture2.jpg,1,threat,threat,picture3.jpg,picture3.jpg,1,threat,threat,picture4.jpg,picture4.jpg,0,threat,neutral,picture1.jpg,picture8.jpg,1,neutral,neutral,picture10.jpg,picture10.jpg
a3lxaru55pr281,1,6,66815,6,1,threat,threat,picture2.jpg,picture2.jpg,0,neutral,neutral,picture8.jpg,picture9.jpg,0,neutral,threat,picture7.jpg,picture1.jpg,1,neutral,neutral,picture1.jpg,picture1.jpg,0,neutral,neutral,picture9.jpg,picture7.jpg,1,neutral,neutral,picture2.jpg,picture2.jpg,1,threat,threat,picture3.jpg,picture3.jpg,1,threat,threat,picture4.jpg,picture4.jpg,0,threat,neutral,picture1.jpg,picture8.jpg,1,neutral,neutral,picture10.jpg,picture10.jpg
a3lxaru55pr281,1,7,70713,7,1,threat,threat,picture2.jpg,picture2.jpg,0,neutral,neutral,picture8.jpg,picture9.jpg,0,neutral,threat,picture9.jpg,picture1.jpg,1,neutral,neutral,picture1.jpg,picture1.jpg,1,neutral,neutral,picture7.jpg,picture7.jpg,1,neutral,neutral,picture2.jpg,picture2.jpg,1,threat,threat,picture3.jpg,picture3.jpg,1,threat,threat,picture4.jpg,picture4.jpg,0,threat,neutral,picture1.jpg,picture8.jpg,1,neutral,neutral,picture10.jpg,picture10.jpg
a3lxaru55pr281,1,8,75801,8,1,threat,threat,picture2.jpg,picture2.jpg,0,threat,neutral,picture1.jpg,picture9.jpg,0,neutral,threat,picture9.jpg,picture1.jpg,1,neutral,neutral,picture1.jpg,picture1.jpg,1,neutral,neutral,picture7.jpg,picture7.jpg,1,neutral,neutral,picture2.jpg,picture2.jpg,1,threat,threat,picture3.jpg,picture3.jpg,1,threat,threat,picture4.jpg,picture4.jpg,1,neutral,neutral,picture8.jpg,picture8.jpg,1,neutral,neutral,picture10.jpg,picture10.jpg
a3lxaru55pr281,1,9,79464,10,1,threat,threat,picture2.jpg,picture2.jpg,1,neutral,neutral,picture9.jpg,picture9.jpg,1,threat,threat,picture1.jpg,picture1.jpg,1,neutral,neutral,picture1.jpg,picture1.jpg,1,neutral,neutral,picture7.jpg,picture7.jpg,1,neutral,neutral,picture2.jpg,picture2.jpg,1,threat,threat,picture3.jpg,picture3.jpg,1,threat,threat,picture4.jpg,picture4.jpg,1,neutral,neutral,picture8.jpg,picture8.jpg,1,neutral,neutral,picture10.jpg,picture10.jpg
a3lxaru55pr281,2,1,50741,10,1,threat,threat,picture2.jpg,picture2.jpg,1,neutral,neutral,picture9.jpg,picture9.jpg,1,threat,threat,picture1.jpg,picture1.jpg,1,neutral,neutral,picture1.jpg,picture1.jpg,1,neutral,neutral,picture7.jpg,picture7.jpg,1,neutral,neutral,picture2.jpg,picture2.jpg,1,threat,threat,picture3.jpg,picture3.jpg,1,threat,threat,picture4.jpg,picture4.jpg,1,neutral,neutral,picture8.jpg,picture8.jpg,1,neutral,neutral,picture10.jpg,picture10.jpg
a3lxaru55pr281,3,1,35946,10,1,threat,threat,picture2.jpg,picture2.jpg,1,neutral,neutral,picture9.jpg,picture9.jpg,1,threat,threat,picture1.jpg,picture1.jpg,1,neutral,neutral,picture1.jpg,picture1.jpg,1,neutral,neutral,picture7.jpg,picture7.jpg,1,neutral,neutral,picture2.jpg,picture2.jpg,1,threat,threat,picture3.jpg,picture3.jpg,1,threat,threat,picture4.jpg,picture4.jpg,1,neutral,neutral,picture8.jpg,picture8.jpg,1,neutral,neutral,picture10.jpg,picture10.jpg
a3lxaru55pr281,4,1,30036,10,1,threat,threat,picture2.jpg,picture2.jpg,1,neutral,neutral,picture9.jpg,picture9.jpg,1,threat,threat,picture1.jpg,picture1.jpg,1,neutral,neutral,picture1.jpg,picture1.jpg,1,neutral,neutral,picture7.jpg,picture7.jpg,1,neutral,neutral,picture2.jpg,picture2.jpg,1,threat,threat,picture3.jpg,picture3.jpg,1,threat,threat,picture4.jpg,picture4.jpg,1,neutral,neutral,picture8.jpg,picture8.jpg,1,neutral,neutral,picture10.jpg,picture10.jpg
a159ng9mhv7e7v,1,1,20328,1,0,threat,threat,picture3.jpg,picture2.jpg,0,neutral,neutral,picture9.jpg,picture4.jpg,0,threat,threat,picture1.jpg,picture4.jpg,0,neutral,neutral,picture5.jpg,picture10.jpg,0,threat,neutral,picture2.jpg,picture3.jpg,0,neutral,neutral,picture4.jpg,picture5.jpg,0,neutral,threat,picture3.jpg,picture1.jpg,1,neutral,neutral,picture1.jpg,picture1.jpg,0,neutral,threat,picture10.jpg,picture3.jpg,0,threat,neutral,picture4.jpg,picture9.jpg
a159ng9mhv7e7v,1,2,27061,1,0,threat,threat,picture3.jpg,picture2.jpg,0,neutral,neutral,picture9.jpg,picture4.jpg,0,threat,threat,picture1.jpg,picture4.jpg,0,neutral,neutral,picture5.jpg,picture10.jpg,0,threat,neutral,picture2.jpg,picture3.jpg,0,neutral,neutral,picture4.jpg,picture5.jpg,0,neutral,threat,picture3.jpg,picture1.jpg,1,neutral,neutral,picture1.jpg,picture1.jpg,0,threat,threat,picture4.jpg,picture3.jpg,0,neutral,neutral,picture10.jpg,picture9.jpg
a159ng9mhv7e7v,1,3,29676,1,0,threat,threat,picture3.jpg,picture2.jpg,0,neutral,neutral,picture9.jpg,picture4.jpg,0,threat,threat,picture1.jpg,picture4.jpg,0,neutral,neutral,picture5.jpg,picture10.jpg,0,threat,neutral,picture2.jpg,picture3.jpg,0,neutral,neutral,picture4.jpg,picture5.jpg,0,neutral,threat,picture10.jpg,picture1.jpg,1,neutral,neutral,picture1.jpg,picture1.jpg,0,threat,threat,picture4.jpg,picture3.jpg,0,neutral,neutral,picture3.jpg,picture9.jpg
a159ng9mhv7e7v,1,4,31807,1,0,threat,threat,picture3.jpg,picture2.jpg,0,neutral,neutral,picture9.jpg,picture4.jpg,0,threat,threat,picture1.jpg,picture4.jpg,0,neutral,neutral,picture5.jpg,picture10.jpg,0,threat,neutral,picture2.jpg,picture3.jpg,0,neutral,neutral,picture10.jpg,picture5.jpg,0,neutral,threat,picture4.jpg,picture1.jpg,1,neutral,neutral,picture1.jpg,picture1.jpg,0,threat,threat,picture4.jpg,picture3.jpg,0,neutral,neutral,picture3.jpg,picture9.jpg
a159ng9mhv7e7v,1,5,34944,1,0,threat,threat,picture3.jpg,picture2.jpg,0,neutral,neutral,picture9.jpg,picture4.jpg,0,threat,threat,picture1.jpg,picture4.jpg,0,neutral,neutral,picture3.jpg,picture10.jpg,0,threat,neutral,picture2.jpg,picture3.jpg,0,neutral,neutral,picture10.jpg,picture5.jpg,0,neutral,threat,picture4.jpg,picture1.jpg,1,neutral,neutral,picture1.jpg,picture1.jpg,0,threat,threat,picture4.jpg,picture3.jpg,0,neutral,neutral,picture5.jpg,picture9.jpg
a159ng9mhv7e7v,1,6,37749,1,0,threat,threat,picture3.jpg,picture2.jpg,0,neutral,neutral,picture9.jpg,picture4.jpg,0,threat,threat,picture1.jpg,picture4.jpg,0,neutral,neutral,picture3.jpg,picture10.jpg,0,threat,neutral,picture4.jpg,picture3.jpg,0,neutral,neutral,picture10.jpg,picture5.jpg,0,neutral,threat,picture4.jpg,picture1.jpg,1,neutral,neutral,picture1.jpg,picture1.jpg,0,threat,threat,picture2.jpg,picture3.jpg,0,neutral,neutral,picture5.jpg,picture9.jpg
a159ng9mhv7e7v,1,7,40150,1,0,neutral,threat,picture9.jpg,picture2.jpg,0,threat,neutral,picture3.jpg,picture4.jpg,0,threat,threat,picture1.jpg,picture4.jpg,0,neutral,neutral,picture3.jpg,picture10.jpg,0,threat,neutral,picture4.jpg,picture3.jpg,0,neutral,neutral,picture10.jpg,picture5.jpg,0,neutral,threat,picture4.jpg,picture1.jpg,1,neutral,neutral,picture1.jpg,picture1.jpg,0,threat,threat,picture2.jpg,picture3.jpg,0,neutral,neutral,picture5.jpg,picture9.jpg
a159ng9mhv7e7v,1,8,42757,1,0,threat,threat,picture1.jpg,picture2.jpg,0,threat,neutral,picture3.jpg,picture4.jpg,0,neutral,threat,picture9.jpg,picture4.jpg,0,neutral,neutral,picture3.jpg,picture10.jpg,0,threat,neutral,picture4.jpg,picture3.jpg,0,neutral,neutral,picture10.jpg,picture5.jpg,0,neutral,threat,picture4.jpg,picture1.jpg,1,neutral,neutral,picture1.jpg,picture1.jpg,0,threat,threat,picture2.jpg,picture3.jpg,0,neutral,neutral,picture5.jpg,picture9.jpg
a159ng9mhv7e7v,1,9,46104,1,0,threat,threat,picture1.jpg,picture2.jpg,0,threat,neutral,picture3.jpg,picture4.jpg,0,neutral,threat,picture9.jpg,picture4.jpg,0,threat,neutral,picture2.jpg,picture10.jpg,0,threat,neutral,picture4.jpg,picture3.jpg,0,neutral,neutral,picture10.jpg,picture5.jpg,0,neutral,threat,picture4.jpg,picture1.jpg,1,neutral,neutral,picture1.jpg,picture1.jpg,0,neutral,threat,picture3.jpg,picture3.jpg,0,neutral,neutral,picture5.jpg,picture9.jpg
a159ng9mhv7e7v,1,10,48508,2,0,threat,threat,picture1.jpg,picture2.jpg,0,threat,neutral,picture3.jpg,picture4.jpg,0,neutral,threat,picture9.jpg,picture4.jpg,0,threat,neutral,picture2.jpg,picture10.jpg,1,neutral,neutral,picture3.jpg,picture3.jpg,0,neutral,neutral,picture10.jpg,picture5.jpg,0,neutral,threat,picture4.jpg,picture1.jpg,1,neutral,neutral,picture1.jpg,picture1.jpg,0,threat,threat,picture4.jpg,picture3.jpg,0,neutral,neutral,picture5.jpg,picture9.jpg
a159ng9mhv7e7v,1,11,51157,2,0,threat,threat,picture1.jpg,picture2.jpg,0,threat,neutral,picture3.jpg,picture4.jpg,0,neutral,threat,picture9.jpg,picture4.jpg,0,threat,neutral,picture2.jpg,picture10.jpg,1,neutral,neutral,picture3.jpg,picture3.jpg,0,neutral,neutral,picture4.jpg,picture5.jpg,0,neutral,threat,picture10.jpg,picture1.jpg,1,neutral,neutral,picture1.jpg,picture1.jpg,0,threat,threat,picture4.jpg,picture3.jpg,0,neutral,neutral,picture5.jpg,picture9.jpg
a159ng9mhv7e7v,1,12,53303,2,0,neutral,threat,picture5.jpg,picture2.jpg,0,threat,neutral,picture3.jpg,picture4.jpg,0,neutral,threat,picture9.jpg,picture4.jpg,0,threat,neutral,picture2.jpg,picture10.jpg,1,neutral,neutral,picture3.jpg,picture3.jpg,0,neutral,neutral,picture4.jpg,picture5.jpg,0,neutral,threat,picture10.jpg,picture1.jpg,1,neutral,neutral,picture1.jpg,picture1.jpg,0,threat,threat,picture4.jpg,picture3.jpg,0,threat,neutral,picture1.jpg,picture9.jpg
a159ng9mhv7e7v,1,13,56078,2,0,neutral,threat,picture5.jpg,picture2.jpg,0,threat,neutral,picture3.jpg,picture4.jpg,0,neutral,threat,picture9.jpg,picture4.jpg,0,threat,neutral,picture2.jpg,picture10.jpg,1,neutral,neutral,picture3.jpg,picture3.jpg,0,threat,neutral,picture1.jpg,picture5.jpg,0,neutral,threat,picture10.jpg,picture1.jpg,1,neutral,neutral,picture1.jpg,picture1.jpg,0,threat,threat,picture4.jpg,picture3.jpg,0,neutral,neutral,picture4.jpg,picture9.jpg
a159ng9mhv7e7v,1,14,58973,2,0,neutral,threat,picture5.jpg,picture2.jpg,0,threat,neutral,picture3.jpg,picture4.jpg,0,neutral,threat,picture9.jpg,picture4.jpg,0,threat,neutral,picture2.jpg,picture10.jpg,1,neutral,neutral,picture3.jpg,picture3.jpg,0,threat,neutral,picture1.jpg,picture5.jpg,0,threat,threat,picture4.jpg,picture1.jpg,1,neutral,neutral,picture1.jpg,picture1.jpg,0,neutral,threat,picture10.jpg,picture3.jpg,0,neutral,neutral,picture4.jpg,picture9.jpg
a159ng9mhv7e7v,1,15,61605,3,0,neutral,threat,picture5.jpg,picture2.jpg,1,neutral,neutral,picture4.jpg,picture4.jpg,0,neutral,threat,picture9.jpg,picture4.jpg,0,threat,neutral,picture2.jpg,picture10.jpg,1,neutral,neutral,picture3.jpg,picture3.jpg,0,threat,neutral,picture1.jpg,picture5.jpg,0,threat,threat,picture4.jpg,picture1.jpg,1,neutral,neutral,picture1.jpg,picture1.jpg,0,neutral,threat,picture10.jpg,picture3.jpg,0,threat,neutral,picture3.jpg,picture9.jpg
a159ng9mhv7e7v,1,16,64930,4,1,threat,threat,picture2.jpg,picture2.jpg,1,neutral,neutral,picture4.jpg,picture4.jpg,0,neutral,threat,picture9.jpg,picture4.jpg,0,neutral,neutral,picture5.jpg,picture10.jpg,1,neutral,neutral,picture3.jpg,picture3.jpg,0,threat,neutral,picture1.jpg,picture5.jpg,0,threat,threat,picture4.jpg,picture1.jpg,1,neutral,neutral,picture1.jpg,picture1.jpg,0,neutral,threat,picture10.jpg,picture3.jpg,0,threat,neutral,picture3.jpg,picture9.jpg
a159ng9mhv7e7v,1,17,68738,4,1,threat,threat,picture2.jpg,picture2.jpg,1,neutral,neutral,picture4.jpg,picture4.jpg,0,neutral,threat,picture9.jpg,picture4.jpg,0,threat,neutral,picture4.jpg,picture10.jpg,1,neutral,neutral,picture3.jpg,picture3.jpg,0,threat,neutral,picture1.jpg,picture5.jpg,0,neutral,threat,picture5.jpg,picture1.jpg,1,neutral,neutral,picture1.jpg,picture1.jpg,0,neutral,threat,picture10.jpg,picture3.jpg,0,threat,neutral,picture3.jpg,picture9.jpg
a159ng9mhv7e7v,1,18,72490,4,1,threat,threat,picture2.jpg,picture2.jpg,1,neutral,neutral,picture4.jpg,picture4.jpg,0,neutral,threat,picture5.jpg,picture4.jpg,0,threat,neutral,picture4.jpg,picture10.jpg,1,neutral,neutral,picture3.jpg,picture3.jpg,0,threat,neutral,picture1.jpg,picture5.jpg,0,neutral,threat,picture9.jpg,picture1.jpg,1,neutral,neutral,picture1.jpg,picture1.jpg,0,neutral,threat,picture10.jpg,picture3.jpg,0,threat,neutral,picture3.jpg,picture9.jpg
a159ng9mhv7e7v,1,19,75846,5,1,threat,threat,picture2.jpg,picture2.jpg,1,neutral,neutral,picture4.jpg,picture4.jpg,0,neutral,threat,picture5.jpg,picture4.jpg,0,threat,neutral,picture4.jpg,picture10.jpg,1,neutral,neutral,picture3.jpg,picture3.jpg,0,neutral,neutral,picture9.jpg,picture5.jpg,1,threat,threat,picture1.jpg,picture1.jpg,1,neutral,neutral,picture1.jpg,picture1.jpg,0,neutral,threat,picture10.jpg,picture3.jpg,0,threat,neutral,picture3.jpg,picture9.jpg
a159ng9mhv7e7v,1,20,80880,7,1,threat,threat,picture2.jpg,picture2.jpg,1,neutral,neutral,picture4.jpg,picture4.jpg,1,threat,threat,picture4.jpg,picture4.jpg,0,neutral,neutral,picture9.jpg,picture10.jpg,1,neutral,neutral,picture3.jpg,picture3.jpg,1,neutral,neutral,picture5.jpg,picture5.jpg,1,threat,threat,picture1.jpg,picture1.jpg,1,neutral,neutral,picture1.jpg,picture1.jpg,0,neutral,threat,picture10.jpg,picture3.jpg,0,threat,neutral,picture3.jpg,picture9.jpg
a159ng9mhv7e7v,1,21,84295,8,1,threat,threat,picture2.jpg,picture2.jpg,1,neutral,neutral,picture4.jpg,picture4.jpg,1,threat,threat,picture4.jpg,picture4.jpg,1,neutral,neutral,picture10.jpg,picture10.jpg,1,neutral,neutral,picture3.jpg,picture3.jpg,1,neutral,neutral,picture5.jpg,picture5.jpg,1,threat,threat,picture1.jpg,picture1.jpg,1,neutral,neutral,picture1.jpg,picture1.jpg,0,neutral,threat,picture9.jpg,picture3.jpg,0,threat,neutral,picture3.jpg,picture9.jpg
a159ng9mhv7e7v,1,22,86519,10,1,threat,threat,picture2.jpg,picture2.jpg,1,neutral,neutral,picture4.jpg,picture4.jpg,1,threat,threat,picture4.jpg,picture4.jpg,1,neutral,neutral,picture10.jpg,picture10.jpg,1,neutral,neutral,picture3.jpg,picture3.jpg,1,neutral,neutral,picture5.jpg,picture5.jpg,1,threat,threat,picture1.jpg,picture1.jpg,1,neutral,neutral,picture1.jpg,picture1.jpg,1,threat,threat,picture3.jpg,picture3.jpg,1,neutral,neutral,picture9.jpg,picture9.jpg
a159ng9mhv7e7v,2,1,30309,10,1,threat,threat,picture2.jpg,picture2.jpg,1,neutral,neutral,picture4.jpg,picture4.jpg,1,threat,threat,picture4.jpg,picture4.jpg,1,neutral,neutral,picture10.jpg,picture10.jpg,1,neutral,neutral,picture3.jpg,picture3.jpg,1,neutral,neutral,picture5.jpg,picture5.jpg,1,threat,threat,picture1.jpg,picture1.jpg,1,neutral,neutral,picture1.jpg,picture1.jpg,1,threat,threat,picture3.jpg,picture3.jpg,1,neutral,neutral,picture9.jpg,picture9.jpg
a159ng9mhv7e7v,3,1,32618,10,1,threat,threat,picture2.jpg,picture2.jpg,1,neutral,neutral,picture4.jpg,picture4.jpg,1,threat,threat,picture4.jpg,picture4.jpg,1,neutral,neutral,picture10.jpg,picture10.jpg,1,neutral,neutral,picture3.jpg,picture3.jpg,1,neutral,neutral,picture5.jpg,picture5.jpg,1,threat,threat,picture1.jpg,picture1.jpg,1,neutral,neutral,picture1.jpg,picture1.jpg,1,threat,threat,picture3.jpg,picture3.jpg,1,neutral,neutral,picture9.jpg,picture9.jpg
a159ng9mhv7e7v,4,1,36115,10,1,threat,threat,picture2.jpg,picture2.jpg,1,neutral,neutral,picture4.jpg,picture4.jpg,1,threat,threat,picture4.jpg,picture4.jpg,1,neutral,neutral,picture10.jpg,picture10.jpg,1,neutral,neutral,picture3.jpg,picture3.jpg,1,neutral,neutral,picture5.jpg,picture5.jpg,1,threat,threat,picture1.jpg,picture1.jpg,1,neutral,neutral,picture1.jpg,picture1.jpg,1,threat,threat,picture3.jpg,picture3.jpg,1,neutral,neutral,picture9.jpg,picture9.jpg
a3ft026lqj29ip,1,1,19036,2,0,neutral,neutral,picture7.jpg,picture3.jpg,0,neutral,threat,picture1.jpg,picture3.jpg,0,threat,neutral,picture3.jpg,picture4.jpg,1,threat,threat,picture4.jpg,picture4.jpg,0,neutral,neutral,picture3.jpg,picture5.jpg,0,neutral,neutral,picture9.jpg,picture1.jpg,1,threat,threat,picture2.jpg,picture2.jpg,0,threat,neutral,picture1.jpg,picture7.jpg,0,neutral,threat,picture4.jpg,picture1.jpg,0,neutral,neutral,picture5.jpg,picture9.jpg
a3ft026lqj29ip,1,2,28384,3,0,neutral,neutral,picture5.jpg,picture3.jpg,0,neutral,threat,picture1.jpg,picture3.jpg,1,neutral,neutral,picture4.jpg,picture4.jpg,1,threat,threat,picture4.jpg,picture4.jpg,0,neutral,neutral,picture7.jpg,picture5.jpg,0,neutral,neutral,picture9.jpg,picture1.jpg,1,threat,threat,picture2.jpg,picture2.jpg,0,threat,neutral,picture1.jpg,picture7.jpg,0,threat,threat,picture3.jpg,picture1.jpg,0,neutral,neutral,picture3.jpg,picture9.jpg
a3ft026lqj29ip,1,3,32516,4,0,neutral,neutral,picture5.jpg,picture3.jpg,0,neutral,threat,picture1.jpg,picture3.jpg,1,neutral,neutral,picture4.jpg,picture4.jpg,1,threat,threat,picture4.jpg,picture4.jpg,0,neutral,neutral,picture7.jpg,picture5.jpg,0,neutral,neutral,picture3.jpg,picture1.jpg,1,threat,threat,picture2.jpg,picture2.jpg,0,threat,neutral,picture1.jpg,picture7.jpg,0,threat,threat,picture3.jpg,picture1.jpg,1,neutral,neutral,picture9.jpg,picture9.jpg
a3ft026lqj29ip,1,4,39432,4,0,threat,neutral,picture1.jpg,picture3.jpg,0,neutral,threat,picture1.jpg,picture3.jpg,1,neutral,neutral,picture4.jpg,picture4.jpg,1,threat,threat,picture4.jpg,picture4.jpg,0,neutral,neutral,picture3.jpg,picture5.jpg,0,neutral,neutral,picture7.jpg,picture1.jpg,1,threat,threat,picture2.jpg,picture2.jpg,0,neutral,neutral,picture5.jpg,picture7.jpg,0,threat,threat,picture3.jpg,picture1.jpg,1,neutral,neutral,picture9.jpg,picture9.jpg
a3ft026lqj29ip,1,5,45004,4,0,neutral,neutral,picture5.jpg,picture3.jpg,0,neutral,threat,picture3.jpg,picture3.jpg,1,neutral,neutral,picture4.jpg,picture4.jpg,1,threat,threat,picture4.jpg,picture4.jpg,0,neutral,neutral,picture1.jpg,picture5.jpg,0,neutral,neutral,picture7.jpg,picture1.jpg,1,threat,threat,picture2.jpg,picture2.jpg,0,threat,neutral,picture1.jpg,picture7.jpg,0,threat,threat,picture3.jpg,picture1.jpg,1,neutral,neutral,picture9.jpg,picture9.jpg
a3ft026lqj29ip,1,6,49935,5,0,neutral,neutral,picture5.jpg,picture3.jpg,0,neutral,threat,picture3.jpg,picture3.jpg,1,neutral,neutral,picture4.jpg,picture4.jpg,1,threat,threat,picture4.jpg,picture4.jpg,0,neutral,neutral,picture7.jpg,picture5.jpg,1,neutral,neutral,picture1.jpg,picture1.jpg,1,threat,threat,picture2.jpg,picture2.jpg,0,threat,neutral,picture1.jpg,picture7.jpg,0,threat,threat,picture3.jpg,picture1.jpg,1,neutral,neutral,picture9.jpg,picture9.jpg
a3ft026lqj29ip,1,7,56355,5,0,threat,neutral,picture3.jpg,picture3.jpg,0,threat,threat,picture1.jpg,picture3.jpg,1,neutral,neutral,picture4.jpg,picture4.jpg,1,threat,threat,picture4.jpg,picture4.jpg,0,neutral,neutral,picture7.jpg,picture5.jpg,1,neutral,neutral,picture1.jpg,picture1.jpg,1,threat,threat,picture2.jpg,picture2.jpg,0,neutral,neutral,picture3.jpg,picture7.jpg,0,neutral,threat,picture5.jpg,picture1.jpg,1,neutral,neutral,picture9.jpg,picture9.jpg
a3ft026lqj29ip,1,8,62195,6,0,neutral,neutral,picture5.jpg,picture3.jpg,0,threat,threat,picture1.jpg,picture3.jpg,1,neutral,neutral,picture4.jpg,picture4.jpg,1,threat,threat,picture4.jpg,picture4.jpg,0,neutral,neutral,picture3.jpg,picture5.jpg,1,neutral,neutral,picture1.jpg,picture1.jpg,1,threat,threat,picture2.jpg,picture2.jpg,1,neutral,neutral,picture7.jpg,picture7.jpg,0,threat,threat,picture3.jpg,picture1.jpg,1,neutral,neutral,picture9.jpg,picture9.jpg
a3ft026lqj29ip,1,9,67509,8,0,neutral,neutral,picture5.jpg,picture3.jpg,1,threat,threat,picture3.jpg,picture3.jpg,1,neutral,neutral,picture4.jpg,picture4.jpg,1,threat,threat,picture4.jpg,picture4.jpg,0,neutral,neutral,picture3.jpg,picture5.jpg,1,neutral,neutral,picture1.jpg,picture1.jpg,1,threat,threat,picture2.jpg,picture2.jpg,1,neutral,neutral,picture7.jpg,picture7.jpg,1,threat,threat,picture1.jpg,picture1.jpg,1,neutral,neutral,picture9.jpg,picture9.jpg
a3ft026lqj29ip,1,10,73647,10,1,neutral,neutral,picture3.jpg,picture3.jpg,1,threat,threat,picture3.jpg,picture3.jpg,1,neutral,neutral,picture4.jpg,picture4.jpg,1,threat,threat,picture4.jpg,picture4.jpg,1,neutral,neutral,picture5.jpg,picture5.jpg,1,neutral,neutral,picture1.jpg,picture1.jpg,1,threat,threat,picture2.jpg,picture2.jpg,1,neutral,neutral,picture7.jpg,picture7.jpg,1,threat,threat,picture1.jpg,picture1.jpg,1,neutral,neutral,picture9.jpg,picture9.jpg
a3ft026lqj29ip,2,1,41404,10,1,neutral,neutral,picture3.jpg,picture3.jpg,1,threat,threat,picture3.jpg,picture3.jpg,1,neutral,neutral,picture4.jpg,picture4.jpg,1,threat,threat,picture4.jpg,picture4.jpg,1,neutral,neutral,picture5.jpg,picture5.jpg,1,neutral,neutral,picture1.jpg,picture1.jpg,1,threat,threat,picture2.jpg,picture2.jpg,1,neutral,neutral,picture7.jpg,picture7.jpg,1,threat,threat,picture1.jpg,picture1.jpg,1,neutral,neutral,picture9.jpg,picture9.jpg
a3ft026lqj29ip,3,1,46280,10,1,neutral,neutral,picture3.jpg,picture3.jpg,1,threat,threat,picture3.jpg,picture3.jpg,1,neutral,neutral,picture4.jpg,picture4.jpg,1,threat,threat,picture4.jpg,picture4.jpg,1,neutral,neutral,picture5.jpg,picture5.jpg,1,neutral,neutral,picture1.jpg,picture1.jpg,1,threat,threat,picture2.jpg,picture2.jpg,1,neutral,neutral,picture7.jpg,picture7.jpg,1,threat,threat,picture1.jpg,picture1.jpg,1,neutral,neutral,picture9.jpg,picture9.jpg
a3ft026lqj29ip,4,1,31108,10,1,neutral,neutral,picture3.jpg,picture3.jpg,1,threat,threat,picture3.jpg,picture3.jpg,1,neutral,neutral,picture4.jpg,picture4.jpg,1,threat,threat,picture4.jpg,picture4.jpg,1,neutral,neutral,picture5.jpg,picture5.jpg,1,neutral,neutral,picture1.jpg,picture1.jpg,1,threat,threat,picture2.jpg,picture2.jpg,1,neutral,neutral,picture7.jpg,picture7.jpg,1,threat,threat,picture1.jpg,picture1.jpg,1,neutral,neutral,picture9.jpg,picture9.jpg
avke1noi9tx8z,1,1,20747,1,0,neutral,threat,picture9.jpg,picture2.jpg,0,threat,neutral,picture3.jpg,picture5.jpg,0,threat,threat,picture2.jpg,picture1.jpg,0,neutral,neutral,picture5.jpg,picture1.jpg,1,neutral,neutral,picture6.jpg,picture6.jpg,0,threat,neutral,picture4.jpg,picture9.jpg,0,neutral,neutral,picture1.jpg,picture3.jpg,0,threat,threat,picture1.jpg,picture4.jpg,0,neutral,neutral,picture3.jpg,picture7.jpg,0,neutral,threat,picture7.jpg,picture3.jpg
avke1noi9tx8z,1,2,27435,1,0,neutral,threat,picture1.jpg,picture2.jpg,0,threat,neutral,picture3.jpg,picture5.jpg,0,threat,threat,picture2.jpg,picture1.jpg,0,neutral,neutral,picture5.jpg,picture1.jpg,1,neutral,neutral,picture6.jpg,picture6.jpg,0,threat,neutral,picture4.jpg,picture9.jpg,0,neutral,neutral,picture9.jpg,picture3.jpg,0,threat,threat,picture1.jpg,picture4.jpg,0,neutral,neutral,picture3.jpg,picture7.jpg,0,neutral,threat,picture7.jpg,picture3.jpg
avke1noi9tx8z,1,3,30295,1,0,threat,threat,picture3.jpg,picture2.jpg,0,neutral,neutral,picture1.jpg,picture5.jpg,0,threat,threat,picture2.jpg,picture1.jpg,0,neutral,neutral,picture5.jpg,picture1.jpg,1,neutral,neutral,picture6.jpg,picture6.jpg,0,threat,neutral,picture4.jpg,picture9.jpg,0,neutral,neutral,picture9.jpg,picture3.jpg,0,threat,threat,picture1.jpg,picture4.jpg,0,neutral,neutral,picture3.jpg,picture7.jpg,0,neutral,threat,picture7.jpg,picture3.jpg
avke1noi9tx8z,1,4,32913,1,0,threat,threat,picture3.jpg,picture2.jpg,0,threat,neutral,picture2.jpg,picture5.jpg,0,neutral,threat,picture1.jpg,picture1.jpg,0,neutral,neutral,picture5.jpg,picture1.jpg,1,neutral,neutral,picture6.jpg,picture6.jpg,0,threat,neutral,picture4.jpg,picture9.jpg,0,neutral,neutral,picture9.jpg,picture3.jpg,0,threat,threat,picture1.jpg,picture4.jpg,0,neutral,neutral,picture3.jpg,picture7.jpg,0,neutral,threat,picture7.jpg,picture3.jpg
avke1noi9tx8z,1,5,37661,2,0,threat,threat,picture3.jpg,picture2.jpg,0,threat,neutral,picture2.jpg,picture5.jpg,0,neutral,threat,picture5.jpg,picture1.jpg,1,neutral,neutral,picture1.jpg,picture1.jpg,1,neutral,neutral,picture6.jpg,picture6.jpg,0,threat,neutral,picture4.jpg,picture9.jpg,0,neutral,neutral,picture9.jpg,picture3.jpg,0,threat,threat,picture1.jpg,picture4.jpg,0,neutral,neutral,picture3.jpg,picture7.jpg,0,neutral,threat,picture7.jpg,picture3.jpg
avke1noi9tx8z,1,6,41754,3,0,threat,threat,picture3.jpg,picture2.jpg,0,threat,neutral,picture2.jpg,picture5.jpg,0,neutral,threat,picture5.jpg,picture1.jpg,1,neutral,neutral,picture1.jpg,picture1.jpg,1,neutral,neutral,picture6.jpg,picture6.jpg,1,neutral,neutral,picture9.jpg,picture9.jpg,0,threat,neutral,picture4.jpg,picture3.jpg,0,threat,threat,picture1.jpg,picture4.jpg,0,neutral,neutral,picture3.jpg,picture7.jpg,0,neutral,threat,picture7.jpg,picture3.jpg
avke1noi9tx8z,1,7,45295,3,0,threat,threat,picture3.jpg,picture2.jpg,0,threat,neutral,picture2.jpg,picture5.jpg,0,neutral,threat,picture5.jpg,picture1.jpg,1,neutral,neutral,picture1.jpg,picture1.jpg,1,neutral,neutral,picture6.jpg,picture6.jpg,1,neutral,neutral,picture9.jpg,picture9.jpg,0,neutral,neutral,picture7.jpg,picture3.jpg,0,threat,threat,picture1.jpg,picture4.jpg,0,neutral,neutral,picture3.jpg,picture7.jpg,0,threat,threat,picture4.jpg,picture3.jpg
avke1noi9tx8z,1,8,48350,3,0,threat,threat,picture3.jpg,picture2.jpg,0,threat,neutral,picture2.jpg,picture5.jpg,0,neutral,threat,picture5.jpg,picture1.jpg,1,neutral,neutral,picture1.jpg,picture1.jpg,1,neutral,neutral,picture6.jpg,picture6.jpg,1,neutral,neutral,picture9.jpg,picture9.jpg,0,neutral,neutral,picture7.jpg,picture3.jpg,0,threat,threat,picture1.jpg,picture4.jpg,0,threat,neutral,picture4.jpg,picture7.jpg,0,neutral,threat,picture3.jpg,picture3.jpg
avke1noi9tx8z,1,9,51455,4,0,threat,threat,picture3.jpg,picture2.jpg,0,threat,neutral,picture2.jpg,picture5.jpg,0,neutral,threat,picture5.jpg,picture1.jpg,1,neutral,neutral,picture1.jpg,picture1.jpg,1,neutral,neutral,picture6.jpg,picture6.jpg,1,neutral,neutral,picture9.jpg,picture9.jpg,0,neutral,neutral,picture7.jpg,picture3.jpg,1,threat,threat,picture4.jpg,picture4.jpg,0,threat,neutral,picture1.jpg,picture7.jpg,0,neutral,threat,picture3.jpg,picture3.jpg
avke1noi9tx8z,1,10,55816,4,0,threat,threat,picture1.jpg,picture2.jpg,0,threat,neutral,picture2.jpg,picture5.jpg,0,neutral,threat,picture5.jpg,picture1.jpg,1,neutral,neutral,picture1.jpg,picture1.jpg,1,neutral,neutral,picture6.jpg,picture6.jpg,1,neutral,neutral,picture9.jpg,picture9.jpg,0,neutral,neutral,picture7.jpg,picture3.jpg,1,threat,threat,picture4.jpg,picture4.jpg,0,threat,neutral,picture3.jpg,picture7.jpg,0,neutral,threat,picture3.jpg,picture3.jpg
avke1noi9tx8z,1,11,58716,4,0,neutral,threat,picture3.jpg,picture2.jpg,0,threat,neutral,picture2.jpg,picture5.jpg,0,neutral,threat,picture5.jpg,picture1.jpg,1,neutral,neutral,picture1.jpg,picture1.jpg,1,neutral,neutral,picture6.jpg,picture6.jpg,1,neutral,neutral,picture9.jpg,picture9.jpg,0,neutral,neutral,picture7.jpg,picture3.jpg,1,threat,threat,picture4.jpg,picture4.jpg,0,threat,neutral,picture3.jpg,picture7.jpg,0,threat,threat,picture1.jpg,picture3.jpg
avke1noi9tx8z,1,12,63294,4,0,neutral,threat,picture3.jpg,picture2.jpg,0,threat,neutral,picture2.jpg,picture5.jpg,0,neutral,threat,picture5.jpg,picture1.jpg,1,neutral,neutral,picture1.jpg,picture1.jpg,1,neutral,neutral,picture6.jpg,picture6.jpg,1,neutral,neutral,picture9.jpg,picture9.jpg,0,threat,neutral,picture1.jpg,picture3.jpg,1,threat,threat,picture4.jpg,picture4.jpg,0,threat,neutral,picture3.jpg,picture7.jpg,0,neutral,threat,picture7.jpg,picture3.jpg
avke1noi9tx8z,1,13,66134,4,0,neutral,threat,picture3.jpg,picture2.jpg,0,threat,neutral,picture1.jpg,picture5.jpg,0,neutral,threat,picture5.jpg,picture1.jpg,1,neutral,neutral,picture1.jpg,picture1.jpg,1,neutral,neutral,picture6.jpg,picture6.jpg,1,neutral,neutral,picture9.jpg,picture9.jpg,0,threat,neutral,picture2.jpg,picture3.jpg,1,threat,threat,picture4.jpg,picture4.jpg,0,threat,neutral,picture3.jpg,picture7.jpg,0,neutral,threat,picture7.jpg,picture3.jpg
avke1noi9tx8z,1,14,68887,6,0,neutral,threat,picture3.jpg,picture2.jpg,1,neutral,neutral,picture5.jpg,picture5.jpg,1,threat,threat,picture1.jpg,picture1.jpg,1,neutral,neutral,picture1.jpg,picture1.jpg,1,neutral,neutral,picture6.jpg,picture6.jpg,1,neutral,neutral,picture9.jpg,picture9.jpg,0,threat,neutral,picture2.jpg,picture3.jpg,1,threat,threat,picture4.jpg,picture4.jpg,0,threat,neutral,picture3.jpg,picture7.jpg,0,neutral,threat,picture7.jpg,picture3.jpg
avke1noi9tx8z,1,15,73559,6,0,neutral,threat,picture7.jpg,picture2.jpg,1,neutral,neutral,picture5.jpg,picture5.jpg,1,threat,threat,picture1.jpg,picture1.jpg,1,neutral,neutral,picture1.jpg,picture1.jpg,1,neutral,neutral,picture6.jpg,picture6.jpg,1,neutral,neutral,picture9.jpg,picture9.jpg,0,threat,neutral,picture2.jpg,picture3.jpg,1,threat,threat,picture4.jpg,picture4.jpg,0,threat,neutral,picture3.jpg,picture7.jpg,0,neutral,threat,picture3.jpg,picture3.jpg
avke1noi9tx8z,1,16,75753,7,0,neutral,threat,picture7.jpg,picture2.jpg,1,neutral,neutral,picture5.jpg,picture5.jpg,1,threat,threat,picture1.jpg,picture1.jpg,1,neutral,neutral,picture1.jpg,picture1.jpg,1,neutral,neutral,picture6.jpg,picture6.jpg,1,neutral,neutral,picture9.jpg,picture9.jpg,1,neutral,neutral,picture3.jpg,picture3.jpg,1,threat,threat,picture4.jpg,picture4.jpg,0,threat,neutral,picture3.jpg,picture7.jpg,0,threat,threat,picture2.jpg,picture3.jpg
avke1noi9tx8z,1,17,78914,8,0,neutral,threat,picture7.jpg,picture2.jpg,1,neutral,neutral,picture5.jpg,picture5.jpg,1,threat,threat,picture1.jpg,picture1.jpg,1,neutral,neutral,picture1.jpg,picture1.jpg,1,neutral,neutral,picture6.jpg,picture6.jpg,1,neutral,neutral,picture9.jpg,picture9.jpg,1,neutral,neutral,picture3.jpg,picture3.jpg,1,threat,threat,picture4.jpg,picture4.jpg,0,threat,neutral,picture2.jpg,picture7.jpg,1,threat,threat,picture3.jpg,picture3.jpg
