subject,trialCount,trialAttempt,RT,nCorrect,dragThreat,dragAcc,swappedThreat,swappedAcc,slot0Acc,slot0CurrentType,slot0CorrectType,slot0CurrentSRC,slot0CorrectSRC,slot1Acc,slot1CurrentType,slot1CorrectType,slot1CurrentSRC,slot1CorrectSRC,slot2Acc,slot2CurrentType,slot2CorrectType,slot2CurrentSRC,slot2CorrectSRC,slot3Acc,slot3CurrentType,slot3CorrectType,slot3CurrentSRC,slot3CorrectSRC,slot4Acc,slot4CurrentType,slot4CorrectType,slot4CurrentSRC,slot4CorrectSRC,slot5Acc,slot5CurrentType,slot5CorrectType,slot5CurrentSRC,slot5CorrectSRC,slot6Acc,slot6CurrentType,slot6CorrectType,slot6CurrentSRC,slot6CorrectSRC,slot7Acc,slot7CurrentType,slot7CorrectType,slot7CurrentSRC,slot7CorrectSRC,slot8Acc,slot8CurrentType,slot8CorrectType,slot8CurrentSRC,slot8CorrectSRC,slot9Acc,slot9CurrentType,slot9CorrectType,slot9CurrentSRC,slot9CorrectSRC
a2ctbahecdqsix,1,1,NA,NA,threat,1,NA,NA,NA,NA,NA,NA,NA,NA,NA,NA,NA,NA,NA,NA,NA,NA,NA,NA,NA,NA,NA,NA,NA,NA,NA,NA,NA,NA,NA,NA,NA,NA,NA,NA,NA,NA,NA,NA,NA,NA,NA,NA,NA,NA,NA,NA,NA,NA,NA,NA,NA,NA
a2ctbahecdqsix,1,1,NA,NA,neutral,0,NA,NA,NA,NA,NA,NA,NA,NA,NA,NA,NA,NA,NA,NA,NA,NA,NA,NA,NA,NA,NA,NA,NA,NA,NA,NA,NA,NA,NA,NA,NA,NA,NA,NA,NA,NA,NA,NA,NA,NA,NA,NA,NA,NA,NA,NA,NA,NA,NA,NA,NA,NA
a2ctbahecdqsix,1,1,NA,NA,neutral,0,NA,NA,NA,NA,NA,NA,NA,NA,NA,NA,NA,NA,NA,NA,NA,NA,NA,NA,NA,NA,NA,NA,NA,NA,NA,NA,NA,NA,NA,NA,NA,NA,NA,NA,NA,NA,NA,NA,NA,NA,NA,NA,NA,NA,NA,NA,NA,NA,NA,NA,NA,NA
a2ctbahecdqsix,1,1,NA,NA,neutral,0,NA,NA,NA,NA,NA,NA,NA,NA,NA,NA,NA,NA,NA,NA,NA,NA,NA,NA,NA,NA,NA,NA,NA,NA,NA,NA,NA,NA,NA,NA,NA,NA,NA,NA,NA,NA,NA,NA,NA,NA,NA,NA,NA,NA,NA,NA,NA,NA,NA,NA,NA,NA
a2ctbahecdqsix,1,1,NA,NA,neutral,0,NA,NA,NA,NA,NA,NA,NA,NA,NA,NA,NA,NA,NA,NA,NA,NA,NA,NA,NA,NA,NA,NA,NA,NA,NA,NA,NA,NA,NA,NA,NA,NA,NA,NA,NA,NA,NA,NA,NA,NA,NA,NA,NA,NA,NA,NA,NA,NA,NA,NA,NA,NA
a2ctbahecdqsix,1,1,NA,NA,neutral,0,NA,NA,NA,NA,NA,NA,NA,NA,NA,NA,NA,NA,NA,NA,NA,NA,NA,NA,NA,NA,NA,NA,NA,NA,NA,NA,NA,NA,NA,NA,NA,NA,NA,NA,NA,NA,NA,NA,NA,NA,NA,NA,NA,NA,NA,NA,NA,NA,NA,NA,NA,NA
a2ctbahecdqsix,1,1,NA,NA,neutral,0,NA,NA,NA,NA,NA,NA,NA,NA,NA,NA,NA,NA,NA,NA,NA,NA,NA,NA,NA,NA,NA,NA,NA,NA,NA,NA,NA,NA,NA,NA,NA,NA,NA,NA,NA,NA,NA,NA,NA,NA,NA,NA,NA,NA,NA,NA,NA,NA,NA,NA,NA,NA
a2ctbahecdqsix,1,1,NA,NA,threat,0,NA,NA,NA,NA,NA,NA,NA,NA,NA,NA,NA,NA,NA,NA,NA,NA,NA,NA,NA,NA,NA,NA,NA,NA,NA,NA,NA,NA,NA,NA,NA,NA,NA,NA,NA,NA,NA,NA,NA,NA,NA,NA,NA,NA,NA,NA,NA,NA,NA,NA,NA,NA
a2ctbahecdqsix,1,1,NA,NA,threat,0,NA,NA,NA,NA,NA,NA,NA,NA,NA,NA,NA,NA,NA,NA,NA,NA,NA,NA,NA,NA,NA,NA,NA,NA,NA,NA,NA,NA,NA,NA,NA,NA,NA,NA,NA,NA,NA,NA,NA,NA,NA,NA,NA,NA,NA,NA,NA,NA,NA,NA,NA,NA
a2ctbahecdqsix,1,1,NA,NA,threat,0,NA,NA,NA,NA,NA,NA,NA,NA,NA,NA,NA,NA,NA,NA,NA,NA,NA,NA,NA,NA,NA,NA,NA,NA,NA,NA,NA,NA,NA,NA,NA,NA,NA,NA,NA,NA,NA,NA,NA,NA,NA,NA,NA,NA,NA,NA,NA,NA,NA,NA,NA,NA
a2ctbahecdqsix,1,1,48660,1,NA,NA,NA,NA,0,neutral,threat,picture5.jpg,picture2.jpg,0,threat,neutral,picture2.jpg,picture7.jpg,0,neutral,neutral,picture7.jpg,picture3.jpg,1,threat,threat,picture3.jpg,picture3.jpg,0,neutral,neutral,picture9.jpg,picture6.jpg,0,neutral,neutral,picture4.jpg,picture9.jpg,0,neutral,threat,picture3.jpg,picture1.jpg,0,threat,neutral,picture4.jpg,picture5.jpg,0,neutral,neutral,picture6.jpg,picture4.jpg,0,threat,threat,picture1.jpg,picture4.jpg
a2ctbahecdqsix,1,2,48660,NA,neutral,0,neutral,0,NA,NA,NA,NA,NA,NA,NA,NA,NA,NA,NA,NA,NA,NA,NA,NA,NA,NA,NA,NA,NA,NA,NA,NA,NA,NA,NA,NA,NA,NA,NA,NA,NA,NA,NA,NA,NA,NA,NA,NA,NA,NA,NA,NA,NA,NA,NA,NA,NA,NA
a2ctbahecdqsix,1,2,48660,NA,threat,0,neutral,0,NA,NA,NA,NA,NA,NA,NA,NA,NA,NA,NA,NA,NA,NA,NA,NA,NA,NA,NA,NA,NA,NA,NA,NA,NA,NA,NA,NA,NA,NA,NA,NA,NA,NA,NA,NA,NA,NA,NA,NA,NA,NA,NA,NA,NA,NA,NA,NA,NA,NA
a2ctbahecdqsix,1,2,48660,NA,neutral,0,neutral,0,NA,NA,NA,NA,NA,NA,NA,NA,NA,NA,NA,NA,NA,NA,NA,NA,NA,NA,NA,NA,NA,NA,NA,NA,NA,NA,NA,NA,NA,NA,NA,NA,NA,NA,NA,NA,NA,NA,NA,NA,NA,NA,NA,NA,NA,NA,NA,NA,NA,NA
a2ctbahecdqsix,1,2,48660,NA,threat,1,threat,0,NA,NA,NA,NA,NA,NA,NA,NA,NA,NA,NA,NA,NA,NA,NA,NA,NA,NA,NA,NA,NA,NA,NA,NA,NA,NA,NA,NA,NA,NA,NA,NA,NA,NA,NA,NA,NA,NA,NA,NA,NA,NA,NA,NA,NA,NA,NA,NA,NA,NA
a2ctbahecdqsix,1,2,48660,NA,neutral,0,neutral,0,NA,NA,NA,NA,NA,NA,NA,NA,NA,NA,NA,NA,NA,NA,NA,NA,NA,NA,NA,NA,NA,NA,NA,NA,NA,NA,NA,NA,NA,NA,NA,NA,NA,NA,NA,NA,NA,NA,NA,NA,NA,NA,NA,NA,NA,NA,NA,NA,NA,NA
a2ctbahecdqsix,1,2,48660,NA,neutral,0,neutral,0,NA,NA,NA,NA,NA,NA,NA,NA,NA,NA,NA,NA,NA,NA,NA,NA,NA,NA,NA,NA,NA,NA,NA,NA,NA,NA,NA,NA,NA,NA,NA,NA,NA,NA,NA,NA,NA,NA,NA,NA,NA,NA,NA,NA,NA,NA,NA,NA,NA,NA
a2ctbahecdqsix,1,2,63795,2,NA,NA,NA,NA,1,threat,threat,picture2.jpg,picture2.jpg,0,threat,neutral,picture1.jpg,picture7.jpg,0,neutral,neutral,picture9.jpg,picture3.jpg,1,threat,threat,picture3.jpg,picture3.jpg,0,neutral,neutral,picture7.jpg,picture6.jpg,0,neutral,neutral,picture5.jpg,picture9.jpg,0,neutral,threat,picture4.jpg,picture1.jpg,0,threat,neutral,picture4.jpg,picture5.jpg,0,neutral,neutral,picture3.jpg,picture4.jpg,0,neutral,threat,picture6.jpg,picture4.jpg
a2ctbahecdqsix,1,3,63795,NA,neutral,0,neutral,0,NA,NA,NA,NA,NA,NA,NA,NA,NA,NA,NA,NA,NA,NA,NA,NA,NA,NA,NA,NA,NA,NA,NA,NA,NA,NA,NA,NA,NA,NA,NA,NA,NA,NA,NA,NA,NA,NA,NA,NA,NA,NA,NA,NA,NA,NA,NA,NA,NA,NA
a2ctbahecdqsix,1,3,63795,NA,neutral,1,neutral,0,NA,NA,NA,NA,NA,NA,NA,NA,NA,NA,NA,NA,NA,NA,NA,NA,NA,NA,NA,NA,NA,NA,NA,NA,NA,NA,NA,NA,NA,NA,NA,NA,NA,NA,NA,NA,NA,NA,NA,NA,NA,NA,NA,NA,NA,NA,NA,NA,NA,NA
a2ctbahecdqsix,1,3,70411,3,NA,NA,NA,NA,1,threat,threat,picture2.jpg,picture2.jpg,0,threat,neutral,picture1.jpg,picture7.jpg,0,neutral,neutral,picture9.jpg,picture3.jpg,1,threat,threat,picture3.jpg,picture3.jpg,1,neutral,neutral,picture6.jpg,picture6.jpg,0,neutral,neutral,picture5.jpg,picture9.jpg,0,neutral,threat,picture7.jpg,picture1.jpg,0,threat,neutral,picture4.jpg,picture5.jpg,0,neutral,neutral,picture3.jpg,picture4.jpg,0,neutral,threat,picture4.jpg,picture4.jpg
a2ctbahecdqsix,1,4,70411,NA,neutral,0,neutral,0,NA,NA,NA,NA,NA,NA,NA,NA,NA,NA,NA,NA,NA,NA,NA,NA,NA,NA,NA,NA,NA,NA,NA,NA,NA,NA,NA,NA,NA,NA,NA,NA,NA,NA,NA,NA,NA,NA,NA,NA,NA,NA,NA,NA,NA,NA,NA,NA,NA,NA
a2ctbahecdqsix,1,4,74251,3,NA,NA,NA,NA,1,threat,threat,picture2.jpg,picture2.jpg,0,threat,neutral,picture1.jpg,picture7.jpg,0,neutral,neutral,picture9.jpg,picture3.jpg,1,threat,threat,picture3.jpg,picture3.jpg,1,neutral,neutral,picture6.jpg,picture6.jpg,0,neutral,neutral,picture5.jpg,picture9.jpg,0,neutral,threat,picture4.jpg,picture1.jpg,0,threat,neutral,picture4.jpg,picture5.jpg,0,neutral,neutral,picture3.jpg,picture4.jpg,0,neutral,threat,picture7.jpg,picture4.jpg
a2ctbahecdqsix,1,5,74251,NA,neutral,1,threat,0,NA,NA,NA,NA,NA,NA,NA,NA,NA,NA,NA,NA,NA,NA,NA,NA,NA,NA,NA,NA,NA,NA,NA,NA,NA,NA,NA,NA,NA,NA,NA,NA,NA,NA,NA,NA,NA,NA,NA,NA,NA,NA,NA,NA,NA,NA,NA,NA,NA,NA
a2ctbahecdqsix,1,5,74251,NA,neutral,0,neutral,0,NA,NA,NA,NA,NA,NA,NA,NA,NA,NA,NA,NA,NA,NA,NA,NA,NA,NA,NA,NA,NA,NA,NA,NA,NA,NA,NA,NA,NA,NA,NA,NA,NA,NA,NA,NA,NA,NA,NA,NA,NA,NA,NA,NA,NA,NA,NA,NA,NA,NA
a2ctbahecdqsix,1,5,79499,4,NA,NA,NA,NA,1,threat,threat,picture2.jpg,picture2.jpg,0,threat,neutral,picture1.jpg,picture7.jpg,0,neutral,neutral,picture9.jpg,picture3.jpg,1,threat,threat,picture3.jpg,picture3.jpg,1,neutral,neutral,picture6.jpg,picture6.jpg,0,threat,neutral,picture4.jpg,picture9.jpg,0,neutral,threat,picture4.jpg,picture1.jpg,1,neutral,neutral,picture5.jpg,picture5.jpg,0,neutral,neutral,picture7.jpg,picture4.jpg,0,neutral,threat,picture3.jpg,picture4.jpg
a2ctbahecdqsix,1,6,79499,NA,neutral,0,threat,0,NA,NA,NA,NA,NA,NA,NA,NA,NA,NA,NA,NA,NA,NA,NA,NA,NA,NA,NA,NA,NA,NA,NA,NA,NA,NA,NA,NA,NA,NA,NA,NA,NA,NA,NA,NA,NA,NA,NA,NA,NA,NA,NA,NA,NA,NA,NA,NA,NA,NA
a2ctbahecdqsix,1,6,83211,4,NA,NA,NA,NA,1,threat,threat,picture2.jpg,picture2.jpg,0,threat,neutral,picture1.jpg,picture7.jpg,0,neutral,neutral,picture9.jpg,picture3.jpg,1,threat,threat,picture3.jpg,picture3.jpg,1,neutral,neutral,picture6.jpg,picture6.jpg,0,neutral,neutral,picture7.jpg,picture9.jpg,0,neutral,threat,picture4.jpg,picture1.jpg,1,neutral,neutral,picture5.jpg,picture5.jpg,0,threat,neutral,picture4.jpg,picture4.jpg,0,neutral,threat,picture3.jpg,picture4.jpg
a2ctbahecdqsix,1,7,83211,NA,neutral,1,threat,0,NA,NA,NA,NA,NA,NA,NA,NA,NA,NA,NA,NA,NA,NA,NA,NA,NA,NA,NA,NA,NA,NA,NA,NA,NA,NA,NA,NA,NA,NA,NA,NA,NA,NA,NA,NA,NA,NA,NA,NA,NA,NA,NA,NA,NA,NA,NA,NA,NA,NA
a2ctbahecdqsix,1,7,88290,5,NA,NA,NA,NA,1,threat,threat,picture2.jpg,picture2.jpg,1,neutral,neutral,picture7.jpg,picture7.jpg,0,neutral,neutral,picture9.jpg,picture3.jpg,1,threat,threat,picture3.jpg,picture3.jpg,1,neutral,neutral,picture6.jpg,picture6.jpg,0,threat,neutral,picture1.jpg,picture9.jpg,0,neutral,threat,picture4.jpg,picture1.jpg,1,neutral,neutral,picture5.jpg,picture5.jpg,0,threat,neutral,picture4.jpg,picture4.jpg,0,neutral,threat,picture3.jpg,picture4.jpg
a2ctbahecdqsix,1,8,88290,NA,neutral,0,neutral,1,NA,NA,NA,NA,NA,NA,NA,NA,NA,NA,NA,NA,NA,NA,NA,NA,NA,NA,NA,NA,NA,NA,NA,NA,NA,NA,NA,NA,NA,NA,NA,NA,NA,NA,NA,NA,NA,NA,NA,NA,NA,NA,NA,NA,NA,NA,NA,NA,NA,NA
a2ctbahecdqsix,1,8,91931,6,NA,NA,NA,NA,1,threat,threat,picture2.jpg,picture2.jpg,1,neutral,neutral,picture7.jpg,picture7.jpg,1,neutral,neutral,picture3.jpg,picture3.jpg,1,threat,threat,picture3.jpg,picture3.jpg,1,neutral,neutral,picture6.jpg,picture6.jpg,0,threat,neutral,picture1.jpg,picture9.jpg,0,neutral,threat,picture4.jpg,picture1.jpg,1,neutral,neutral,picture5.jpg,picture5.jpg,0,threat,neutral,picture4.jpg,picture4.jpg,0,neutral,threat,picture9.jpg,picture4.jpg
a2ctbahecdqsix,1,9,96970,6,NA,NA,NA,NA,1,threat,threat,picture2.jpg,picture2.jpg,1,neutral,neutral,picture7.jpg,picture7.jpg,1,neutral,neutral,picture3.jpg,picture3.jpg,1,threat,threat,picture3.jpg,picture3.jpg,1,neutral,neutral,picture6.jpg,picture6.jpg,0,threat,neutral,picture1.jpg,picture9.jpg,0,neutral,threat,picture4.jpg,picture1.jpg,1,neutral,neutral,picture5.jpg,picture5.jpg,0,threat,neutral,picture4.jpg,picture4.jpg,0,neutral,threat,picture9.jpg,picture4.jpg
a2ctbahecdqsix,1,10,96970,NA,threat,0,neutral,1,NA,NA,NA,NA,NA,NA,NA,NA,NA,NA,NA,NA,NA,NA,NA,NA,NA,NA,NA,NA,NA,NA,NA,NA,NA,NA,NA,NA,NA,NA,NA,NA,NA,NA,NA,NA,NA,NA,NA,NA,NA,NA,NA,NA,NA,NA,NA,NA,NA,NA
a2ctbahecdqsix,1,10,101810,7,NA,NA,NA,NA,1,threat,threat,picture2.jpg,picture2.jpg,1,neutral,neutral,picture7.jpg,picture7.jpg,1,neutral,neutral,picture3.jpg,picture3.jpg,1,threat,threat,picture3.jpg,picture3.jpg,1,neutral,neutral,picture6.jpg,picture6.jpg,1,neutral,neutral,picture9.jpg,picture9.jpg,0,neutral,threat,picture4.jpg,picture1.jpg,1,neutral,neutral,picture5.jpg,picture5.jpg,0,threat,neutral,picture4.jpg,picture4.jpg,0,threat,threat,picture1.jpg,picture4.jpg
a2ctbahecdqsix,1,11,101810,NA,threat,1,threat,0,NA,NA,NA,NA,NA,NA,NA,NA,NA,NA,NA,NA,NA,NA,NA,NA,NA,NA,NA,NA,NA,NA,NA,NA,NA,NA,NA,NA,NA,NA,NA,NA,NA,NA,NA,NA,NA,NA,NA,NA,NA,NA,NA,NA,NA,NA,NA,NA,NA,NA
a2ctbahecdqsix,1,11,105506,8,NA,NA,NA,NA,1,threat,threat,picture2.jpg,picture2.jpg,1,neutral,neutral,picture7.jpg,picture7.jpg,1,neutral,neutral,picture3.jpg,picture3.jpg,1,threat,threat,picture3.jpg,picture3.jpg,1,neutral,neutral,picture6.jpg,picture6.jpg,1,neutral,neutral,picture9.jpg,picture9.jpg,0,neutral,threat,picture4.jpg,picture1.jpg,1,neutral,neutral,picture5.jpg,picture5.jpg,0,threat,neutral,picture1.jpg,picture4.jpg,1,threat,threat,picture4.jpg,picture4.jpg
a2ctbahecdqsix,1,12,105506,NA,threat,1,neutral,1,NA,NA,NA,NA,NA,NA,NA,NA,NA,NA,NA,NA,NA,NA,NA,NA,NA,NA,NA,NA,NA,NA,NA,NA,NA,NA,NA,NA,NA,NA,NA,NA,NA,NA,NA,NA,NA,NA,NA,NA,NA,NA,NA,NA,NA,NA,NA,NA,NA,NA
a2ctbahecdqsix,1,12,246423,10,NA,NA,NA,NA,1,threat,threat,picture2.jpg,picture2.jpg,1,neutral,neutral,picture7.jpg,picture7.jpg,1,neutral,neutral,picture3.jpg,picture3.jpg,1,threat,threat,picture3.jpg,picture3.jpg,1,neutral,neutral,picture6.jpg,picture6.jpg,1,neutral,neutral,picture9.jpg,picture9.jpg,1,threat,threat,picture1.jpg,picture1.jpg,1,neutral,neutral,picture5.jpg,picture5.jpg,1,neutral,neutral,picture4.jpg,picture4.jpg,1,threat,threat,picture4.jpg,picture4.jpg
a2ctbahecdqsix,2,1,-2195,NA,threat,1,NA,NA,NA,NA,NA,NA,NA,NA,NA,NA,NA,NA,NA,NA,NA,NA,NA,NA,NA,NA,NA,NA,NA,NA,NA,NA,NA,NA,NA,NA,NA,NA,NA,NA,NA,NA,NA,NA,NA,NA,NA,NA,NA,NA,NA,NA,NA,NA,NA,NA,NA,NA
a2ctbahecdqsix,2,1,-2195,NA,neutral,1,NA,NA,NA,NA,NA,NA,NA,NA,NA,NA,NA,NA,NA,NA,NA,NA,NA,NA,NA,NA,NA,NA,NA,NA,NA,NA,NA,NA,NA,NA,NA,NA,NA,NA,NA,NA,NA,NA,NA,NA,NA,NA,NA,NA,NA,NA,NA,NA,NA,NA,NA,NA
a2ctbahecdqsix,2,1,-2195,NA,neutral,1,NA,NA,NA,NA,NA,NA,NA,NA,NA,NA,NA,NA,NA,NA,NA,NA,NA,NA,NA,NA,NA,NA,NA,NA,NA,NA,NA,NA,NA,NA,NA,NA,NA,NA,NA,NA,NA,NA,NA,NA,NA,NA,NA,NA,NA,NA,NA,NA,NA,NA,NA,NA
a2ctbahecdqsix,2,1,-2195,NA,threat,1,NA,NA,NA,NA,NA,NA,NA,NA,NA,NA,NA,NA,NA,NA,NA,NA,NA,NA,NA,NA,NA,NA,NA,NA,NA,NA,NA,NA,NA,NA,NA,NA,NA,NA,NA,NA,NA,NA,NA,NA,NA,NA,NA,NA,NA,NA,NA,NA,NA,NA,NA,NA
a2ctbahecdqsix,2,1,-2195,NA,neutral,1,NA,NA,NA,NA,NA,NA,NA,NA,NA,NA,NA,NA,NA,NA,NA,NA,NA,NA,NA,NA,NA,NA,NA,NA,NA,NA,NA,NA,NA,NA,NA,NA,NA,NA,NA,NA,NA,NA,NA,NA,NA,NA,NA,NA,NA,NA,NA,NA,NA,NA,NA,NA
a2ctbahecdqsix,2,1,-2195,NA,threat,1,NA,NA,NA,NA,NA,NA,NA,NA,NA,NA,NA,NA,NA,NA,NA,NA,NA,NA,NA,NA,NA,NA,NA,NA,NA,NA,NA,NA,NA,NA,NA,NA,NA,NA,NA,NA,NA,NA,NA,NA,NA,NA,NA,NA,NA,NA,NA,NA,NA,NA,NA,NA
a2ctbahecdqsix,2,1,-2195,NA,neutral,1,NA,NA,NA,NA,NA,NA,NA,NA,NA,NA,NA,NA,NA,NA,NA,NA,NA,NA,NA,NA,NA,NA,NA,NA,NA,NA,NA,NA,NA,NA,NA,NA,NA,NA,NA,NA,NA,NA,NA,NA,NA,NA,NA,NA,NA,NA,NA,NA,NA,NA,NA,NA
a2ctbahecdqsix,2,1,-2195,NA,neutral,1,NA,NA,NA,NA,NA,NA,NA,NA,NA,NA,NA,NA,NA,NA,NA,NA,NA,NA,NA,NA,NA,NA,NA,NA,NA,NA,NA,NA,NA,NA,NA,NA,NA,NA,NA,NA,NA,NA,NA,NA,NA,NA,NA,NA,NA,NA,NA,NA,NA,NA,NA,NA
a2ctbahecdqsix,2,1,-2195,NA,neutral,1,NA,NA,NA,NA,NA,NA,NA,NA,NA,NA,NA,NA,NA,NA,NA,NA,NA,NA,NA,NA,NA,NA,NA,NA,NA,NA,NA,NA,NA,NA,NA,NA,NA,NA,NA,NA,NA,NA,NA,NA,NA,NA,NA,NA,NA,NA,NA,NA,NA,NA,NA,NA
a2ctbahecdqsix,2,1,-2195,NA,threat,1,NA,NA,NA,NA,NA,NA,NA,NA,NA,NA,NA,NA,NA,NA,NA,NA,NA,NA,NA,NA,NA,NA,NA,NA,NA,NA,NA,NA,NA,NA,NA,NA,NA,NA,NA,NA,NA,NA,NA,NA,NA,NA,NA,NA,NA,NA,NA,NA,NA,NA,NA,NA
a2ctbahecdqsix,2,1,42605,10,NA,NA,NA,NA,1,threat,threat,picture2.jpg,picture2.jpg,1,neutral,neutral,picture7.jpg,picture7.jpg,1,neutral,neutral,picture3.jpg,picture3.jpg,1,threat,threat,picture3.jpg,picture3.jpg,1,neutral,neutral,picture6.jpg,picture6.jpg,1,neutral,neutral,picture9.jpg,picture9.jpg,1,threat,threat,picture1.jpg,picture1.jpg,1,neutral,neutral,picture5.jpg,picture5.jpg,1,neutral,neutral,picture4.jpg,picture4.jpg,1,threat,threat,picture4.jpg,picture4.jpg
a2ctbahecdqsix,3,1,-2248,NA,threat,1,NA,NA,NA,NA,NA,NA,NA,NA,NA,NA,NA,NA,NA,NA,NA,NA,NA,NA,NA,NA,NA,NA,NA,NA,NA,NA,NA,NA,NA,NA,NA,NA,NA,NA,NA,NA,NA,NA,NA,NA,NA,NA,NA,NA,NA,NA,NA,NA,NA,NA,NA,NA
a2ctbahecdqsix,3,1,-2248,NA,neutral,1,NA,NA,NA,NA,NA,NA,NA,NA,NA,NA,NA,NA,NA,NA,NA,NA,NA,NA,NA,NA,NA,NA,NA,NA,NA,NA,NA,NA,NA,NA,NA,NA,NA,NA,NA,NA,NA,NA,NA,NA,NA,NA,NA,NA,NA,NA,NA,NA,NA,NA,NA,NA
a2ctbahecdqsix,3,1,-2248,NA,neutral,1,NA,NA,NA,NA,NA,NA,NA,NA,NA,NA,NA,NA,NA,NA,NA,NA,NA,NA,NA,NA,NA,NA,NA,NA,NA,NA,NA,NA,NA,NA,NA,NA,NA,NA,NA,NA,NA,NA,NA,NA,NA,NA,NA,NA,NA,NA,NA,NA,NA,NA,NA,NA
a2ctbahecdqsix,3,1,-2248,NA,threat,1,NA,NA,NA,NA,NA,NA,NA,NA,NA,NA,NA,NA,NA,NA,NA,NA,NA,NA,NA,NA,NA,NA,NA,NA,NA,NA,NA,NA,NA,NA,NA,NA,NA,NA,NA,NA,NA,NA,NA,NA,NA,NA,NA,NA,NA,NA,NA,NA,NA,NA,NA,NA
a2ctbahecdqsix,3,1,-2248,NA,neutral,1,NA,NA,NA,NA,NA,NA,NA,NA,NA,NA,NA,NA,NA,NA,NA,NA,NA,NA,NA,NA,NA,NA,NA,NA,NA,NA,NA,NA,NA,NA,NA,NA,NA,NA,NA,NA,NA,NA,NA,NA,NA,NA,NA,NA,NA,NA,NA,NA,NA,NA,NA,NA
a2ctbahecdqsix,3,1,-2248,NA,neutral,1,NA,NA,NA,NA,NA,NA,NA,NA,NA,NA,NA,NA,NA,NA,NA,NA,NA,NA,NA,NA,NA,NA,NA,NA,NA,NA,NA,NA,NA,NA,NA,NA,NA,NA,NA,NA,NA,NA,NA,NA,NA,NA,NA,NA,NA,NA,NA,NA,NA,NA,NA,NA
a2ctbahecdqsix,3,1,-2248,NA,neutral,1,NA,NA,NA,NA,NA,NA,NA,NA,NA,NA,NA,NA,NA,NA,NA,NA,NA,NA,NA,NA,NA,NA,NA,NA,NA,NA,NA,NA,NA,NA,NA,NA,NA,NA,NA,NA,NA,NA,NA,NA,NA,NA,NA,NA,NA,NA,NA,NA,NA,NA,NA,NA
a2ctbahecdqsix,3,1,-2248,NA,neutral,1,NA,NA,NA,NA,NA,NA,NA,NA,NA,NA,NA,NA,NA,NA,NA,NA,NA,NA,NA,NA,NA,NA,NA,NA,NA,NA,NA,NA,NA,NA,NA,NA,NA,NA,NA,NA,NA,NA,NA,NA,NA,NA,NA,NA,NA,NA,NA,NA,NA,NA,NA,NA
a2ctbahecdqsix,3,1,-2248,NA,threat,1,NA,NA,NA,NA,NA,NA,NA,NA,NA,NA,NA,NA,NA,NA,NA,NA,NA,NA,NA,NA,NA,NA,NA,NA,NA,NA,NA,NA,NA,NA,NA,NA,NA,NA,NA,NA,NA,NA,NA,NA,NA,NA,NA,NA,NA,NA,NA,NA,NA,NA,NA,NA
a2ctbahecdqsix,3,1,-2248,NA,threat,1,NA,NA,NA,NA,NA,NA,NA,NA,NA,NA,NA,NA,NA,NA,NA,NA,NA,NA,NA,NA,NA,NA,NA,NA,NA,NA,NA,NA,NA,NA,NA,NA,NA,NA,NA,NA,NA,NA,NA,NA,NA,NA,NA,NA,NA,NA,NA,NA,NA,NA,NA,NA
a2ctbahecdqsix,3,1,32478,10,NA,NA,NA,NA,1,threat,threat,picture2.jpg,picture2.jpg,1,neutral,neutral,picture7.jpg,picture7.jpg,1,neutral,neutral,picture3.jpg,picture3.jpg,1,threat,threat,picture3.jpg,picture3.jpg,1,neutral,neutral,picture6.jpg,picture6.jpg,1,neutral,neutral,picture9.jpg,picture9.jpg,1,threat,threat,picture1.jpg,picture1.jpg,1,neutral,neutral,picture5.jpg,picture5.jpg,1,neutral,neutral,picture4.jpg,picture4.jpg,1,threat,threat,picture4.jpg,picture4.jpg
a2ctbahecdqsix,4,1,-2801,NA,neutral,1,NA,NA,NA,NA,NA,NA,NA,NA,NA,NA,NA,NA,NA,NA,NA,NA,NA,NA,NA,NA,NA,NA,NA,NA,NA,NA,NA,NA,NA,NA,NA,NA,NA,NA,NA,NA,NA,NA,NA,NA,NA,NA,NA,NA,NA,NA,NA,NA,NA,NA,NA,NA
a2ctbahecdqsix,4,1,-2801,NA,neutral,1,NA,NA,NA,NA,NA,NA,NA,NA,NA,NA,NA,NA,NA,NA,NA,NA,NA,NA,NA,NA,NA,NA,NA,NA,NA,NA,NA,NA,NA,NA,NA,NA,NA,NA,NA,NA,NA,NA,NA,NA,NA,NA,NA,NA,NA,NA,NA,NA,NA,NA,NA,NA
a2ctbahecdqsix,4,1,-2801,NA,threat,1,NA,NA,NA,NA,NA,NA,NA,NA,NA,NA,NA,NA,NA,NA,NA,NA,NA,NA,NA,NA,NA,NA,NA,NA,NA,NA,NA,NA,NA,NA,NA,NA,NA,NA,NA,NA,NA,NA,NA,NA,NA,NA,NA,NA,NA,NA,NA,NA,NA,NA,NA,NA
a2ctbahecdqsix,4,1,-2801,NA,threat,1,NA,NA,NA,NA,NA,NA,NA,NA,NA,NA,NA,NA,NA,NA,NA,NA,NA,NA,NA,NA,NA,NA,NA,NA,NA,NA,NA,NA,NA,NA,NA,NA,NA,NA,NA,NA,NA,NA,NA,NA,NA,NA,NA,NA,NA,NA,NA,NA,NA,NA,NA,NA
a2ctbahecdqsix,4,1,-2801,NA,neutral,1,NA,NA,NA,NA,NA,NA,NA,NA,NA,NA,NA,NA,NA,NA,NA,NA,NA,NA,NA,NA,NA,NA,NA,NA,NA,NA,NA,NA,NA,NA,NA,NA,NA,NA,NA,NA,NA,NA,NA,NA,NA,NA,NA,NA,NA,NA,NA,NA,NA,NA,NA,NA
a2ctbahecdqsix,4,1,-2801,NA,neutral,1,NA,NA,NA,NA,NA,NA,NA,NA,NA,NA,NA,NA,NA,NA,NA,NA,NA,NA,NA,NA,NA,NA,NA,NA,NA,NA,NA,NA,NA,NA,NA,NA,NA,NA,NA,NA,NA,NA,NA,NA,NA,NA,NA,NA,NA,NA,NA,NA,NA,NA,NA,NA
a2ctbahecdqsix,4,1,-2801,NA,neutral,1,NA,NA,NA,NA,NA,NA,NA,NA,NA,NA,NA,NA,NA,NA,NA,NA,NA,NA,NA,NA,NA,NA,NA,NA,NA,NA,NA,NA,NA,NA,NA,NA,NA,NA,NA,NA,NA,NA,NA,NA,NA,NA,NA,NA,NA,NA,NA,NA,NA,NA,NA,NA
a2ctbahecdqsix,4,1,-2801,NA,neutral,1,NA,NA,NA,NA,NA,NA,NA,NA,NA,NA,NA,NA,NA,NA,NA,NA,NA,NA,NA,NA,NA,NA,NA,NA,NA,NA,NA,NA,NA,NA,NA,NA,NA,NA,NA,NA,NA,NA,NA,NA,NA,NA,NA,NA,NA,NA,NA,NA,NA,NA,NA,NA
a2ctbahecdqsix,4,1,-2801,NA,threat,1,NA,NA,NA,NA,NA,NA,NA,NA,NA,NA,NA,NA,NA,NA,NA,NA,NA,NA,NA,NA,NA,NA,NA,NA,NA,NA,NA,NA,NA,NA,NA,NA,NA,NA,NA,NA,NA,NA,NA,NA,NA,NA,NA,NA,NA,NA,NA,NA,NA,NA,NA,NA
a2ctbahecdqsix,4,1,-2801,NA,threat,1,NA,NA,NA,NA,NA,NA,NA,NA,NA,NA,NA,NA,NA,NA,NA,NA,NA,NA,NA,NA,NA,NA,NA,NA,NA,NA,NA,NA,NA,NA,NA,NA,NA,NA,NA,NA,NA,NA,NA,NA,NA,NA,NA,NA,NA,NA,NA,NA,NA,NA,NA,NA
a2ctbahecdqsix,4,1,69189,10,NA,NA,NA,NA,1,threat,threat,picture2.jpg,picture2.jpg,1,neutral,neutral,picture7.jpg,picture7.jpg,1,neutral,neutral,picture3.jpg,picture3.jpg,1,threat,threat,picture3.jpg,picture3.jpg,1,neutral,neutral,picture6.jpg,picture6.jpg,1,neutral,neutral,picture9.jpg,picture9.jpg,1,threat,threat,picture1.jpg,picture1.jpg,1,neutral,neutral,picture5.jpg,picture5.jpg,1,neutral,neutral,picture4.jpg,picture4.jpg,1,threat,threat,picture4.jpg,picture4.jpg
a178bxd4ubx932,1,1,NA,NA,neutral,1,NA,NA,NA,NA,NA,NA,NA,NA,NA,NA,NA,NA,NA,NA,NA,NA,NA,NA,NA,NA,NA,NA,NA,NA,NA,NA,NA,NA,NA,NA,NA,NA,NA,NA,NA,NA,NA,NA,NA,NA,NA,NA,NA,NA,NA,NA,NA,NA,NA,NA,NA,NA
a178bxd4ubx932,1,1,NA,NA,threat,0,NA,NA,NA,NA,NA,NA,NA,NA,NA,NA,NA,NA,NA,NA,NA,NA,NA,NA,NA,NA,NA,NA,NA,NA,NA,NA,NA,NA,NA,NA,NA,NA,NA,NA,NA,NA,NA,NA,NA,NA,NA,NA,NA,NA,NA,NA,NA,NA,NA,NA,NA,NA
a178bxd4ubx932,1,1,NA,NA,neutral,0,NA,NA,NA,NA,NA,NA,NA,NA,NA,NA,NA,NA,NA,NA,NA,NA,NA,NA,NA,NA,NA,NA,NA,NA,NA,NA,NA,NA,NA,NA,NA,NA,NA,NA,NA,NA,NA,NA,NA,NA,NA,NA,NA,NA,NA,NA,NA,NA,NA,NA,NA,NA
a178bxd4ubx932,1,1,NA,NA,neutral,0,NA,NA,NA,NA,NA,NA,NA,NA,NA,NA,NA,NA,NA,NA,NA,NA,NA,NA,NA,NA,NA,NA,NA,NA,NA,NA,NA,NA,NA,NA,NA,NA,NA,NA,NA,NA,NA,NA,NA,NA,NA,NA,NA,NA,NA,NA,NA,NA,NA,NA,NA,NA
a178bxd4ubx932,1,1,NA,NA,threat,0,NA,NA,NA,NA,NA,NA,NA,NA,NA,NA,NA,NA,NA,NA,NA,NA,NA,NA,NA,NA,NA,NA,NA,NA,NA,NA,NA,NA,NA,NA,NA,NA,NA,NA,NA,NA,NA,NA,NA,NA,NA,NA,NA,NA,NA,NA,NA,NA,NA,NA,NA,NA
a178bxd4ubx932,1,1,NA,NA,threat,0,NA,NA,NA,NA,NA,NA,NA,NA,NA,NA,NA,NA,NA,NA,NA,NA,NA,NA,NA,NA,NA,NA,NA,NA,NA,NA,NA,NA,NA,NA,NA,NA,NA,NA,NA,NA,NA,NA,NA,NA,NA,NA,NA,NA,NA,NA,NA,NA,NA,NA,NA,NA
a178bxd4ubx932,1,1,NA,NA,threat,0,NA,NA,NA,NA,NA,NA,NA,NA,NA,NA,NA,NA,NA,NA,NA,NA,NA,NA,NA,NA,NA,NA,NA,NA,NA,NA,NA,NA,NA,NA,NA,NA,NA,NA,NA,NA,NA,NA,NA,NA,NA,NA,NA,NA,NA,NA,NA,NA,NA,NA,NA,NA
a178bxd4ubx932,1,1,NA,NA,neutral,0,NA,NA,NA,NA,NA,NA,NA,NA,NA,NA,NA,NA,NA,NA,NA,NA,NA,NA,NA,NA,NA,NA,NA,NA,NA,NA,NA,NA,NA,NA,NA,NA,NA,NA,NA,NA,NA,NA,NA,NA,NA,NA,NA,NA,NA,NA,NA,NA,NA,NA,NA,NA
a178bxd4ubx932,1,1,NA,NA,neutral,0,NA,NA,NA,NA,NA,NA,NA,NA,NA,NA,NA,NA,NA,NA,NA,NA,NA,NA,NA,NA,NA,NA,NA,NA,NA,NA,NA,NA,NA,NA,NA,NA,NA,NA,NA,NA,NA,NA,NA,NA,NA,NA,NA,NA,NA,NA,NA,NA,NA,NA,NA,NA
a178bxd4ubx932,1,1,NA,NA,neutral,0,NA,NA,NA,NA,NA,NA,NA,NA,NA,NA,NA,NA,NA,NA,NA,NA,NA,NA,NA,NA,NA,NA,NA,NA,NA,NA,NA,NA,NA,NA,NA,NA,NA,NA,NA,NA,NA,NA,NA,NA,NA,NA,NA,NA,NA,NA,NA,NA,NA,NA,NA,NA
a178bxd4ubx932,1,1,59729,1,NA,NA,NA,NA,0,threat,neutral,picture4.jpg,picture10.jpg,0,neutral,neutral,picture10.jpg,picture4.jpg,0,neutral,threat,picture8.jpg,picture2.jpg,0,neutral,threat,picture3.jpg,picture3.jpg,1,neutral,neutral,picture9.jpg,picture9.jpg,0,neutral,neutral,picture1.jpg,picture3.jpg,0,threat,neutral,picture1.jpg,picture8.jpg,0,neutral,threat,picture4.jpg,picture1.jpg,0,threat,neutral,picture3.jpg,picture1.jpg,0,threat,threat,picture2.jpg,picture4.jpg
a178bxd4ubx932,1,2,59729,NA,neutral,0,threat,0,NA,NA,NA,NA,NA,NA,NA,NA,NA,NA,NA,NA,NA,NA,NA,NA,NA,NA,NA,NA,NA,NA,NA,NA,NA,NA,NA,NA,NA,NA,NA,NA,NA,NA,NA,NA,NA,NA,NA,NA,NA,NA,NA,NA,NA,NA,NA,NA,NA,NA
a178bxd4ubx932,1,2,64317,1,NA,NA,NA,NA,0,threat,neutral,picture4.jpg,picture10.jpg,0,neutral,neutral,picture10.jpg,picture4.jpg,0,neutral,threat,picture8.jpg,picture2.jpg,0,neutral,threat,picture3.jpg,picture3.jpg,1,neutral,neutral,picture9.jpg,picture9.jpg,0,threat,neutral,picture1.jpg,picture3.jpg,0,neutral,neutral,picture1.jpg,picture8.jpg,0,neutral,threat,picture4.jpg,picture1.jpg,0,threat,neutral,picture3.jpg,picture1.jpg,0,threat,threat,picture2.jpg,picture4.jpg
a178bxd4ubx932,1,3,64317,NA,threat,0,neutral,0,NA,NA,NA,NA,NA,NA,NA,NA,NA,NA,NA,NA,NA,NA,NA,NA,NA,NA,NA,NA,NA,NA,NA,NA,NA,NA,NA,NA,NA,NA,NA,NA,NA,NA,NA,NA,NA,NA,NA,NA,NA,NA,NA,NA,NA,NA,NA,NA,NA,NA
a178bxd4ubx932,1,3,78625,1,NA,NA,NA,NA,0,threat,neutral,picture4.jpg,picture10.jpg,0,neutral,neutral,picture10.jpg,picture4.jpg,0,neutral,threat,picture8.jpg,picture2.jpg,0,neutral,threat,picture3.jpg,picture3.jpg,1,neutral,neutral,picture9.jpg,picture9.jpg,0,neutral,neutral,picture1.jpg,picture3.jpg,0,threat,neutral,picture1.jpg,picture8.jpg,0,neutral,threat,picture4.jpg,picture1.jpg,0,threat,neutral,picture3.jpg,picture1.jpg,0,threat,threat,picture2.jpg,picture4.jpg
a178bxd4ubx932,1,4,78625,NA,threat,0,threat,0,NA,NA,NA,NA,NA,NA,NA,NA,NA,NA,NA,NA,NA,NA,NA,NA,NA,NA,NA,NA,NA,NA,NA,NA,NA,NA,NA,NA,NA,NA,NA,NA,NA,NA,NA,NA,NA,NA,NA,NA,NA,NA,NA,NA,NA,NA,NA,NA,NA,NA
a178bxd4ubx932,1,4,78625,NA,threat,0,threat,0,NA,NA,NA,NA,NA,NA,NA,NA,NA,NA,NA,NA,NA,NA,NA,NA,NA,NA,NA,NA,NA,NA,NA,NA,NA,NA,NA,NA,NA,NA,NA,NA,NA,NA,NA,NA,NA,NA,NA,NA,NA,NA,NA,NA,NA,NA,NA,NA,NA,NA
a178bxd4ubx932,1,4,83975,1,NA,NA,NA,NA,0,threat,neutral,picture2.jpg,picture10.jpg,0,neutral,neutral,picture10.jpg,picture4.jpg,0,neutral,threat,picture8.jpg,picture2.jpg,0,neutral,threat,picture3.jpg,picture3.jpg,1,neutral,neutral,picture9.jpg,picture9.jpg,0,neutral,neutral,picture1.jpg,picture3.jpg,0,threat,neutral,picture4.jpg,picture8.jpg,0,neutral,threat,picture4.jpg,picture1.jpg,0,threat,neutral,picture3.jpg,picture1.jpg,0,threat,threat,picture1.jpg,picture4.jpg
a178bxd4ubx932,1,5,83975,NA,neutral,0,threat,0,NA,NA,NA,NA,NA,NA,NA,NA,NA,NA,NA,NA,NA,NA,NA,NA,NA,NA,NA,NA,NA,NA,NA,NA,NA,NA,NA,NA,NA,NA,NA,NA,NA,NA,NA,NA,NA,NA,NA,NA,NA,NA,NA,NA,NA,NA,NA,NA,NA,NA
a178bxd4ubx932,1,5,87086,1,NA,NA,NA,NA,0,threat,neutral,picture2.jpg,picture10.jpg,0,threat,neutral,picture4.jpg,picture4.jpg,0,neutral,threat,picture8.jpg,picture2.jpg,0,neutral,threat,picture3.jpg,picture3.jpg,1,neutral,neutral,picture9.jpg,picture9.jpg,0,neutral,neutral,picture1.jpg,picture3.jpg,0,neutral,neutral,picture10.jpg,picture8.jpg,0,neutral,threat,picture4.jpg,picture1.jpg,0,threat,neutral,picture3.jpg,picture1.jpg,0,threat,threat,picture1.jpg,picture4.jpg
a178bxd4ubx932,1,6,87086,NA,neutral,1,neutral,0,NA,NA,NA,NA,NA,NA,NA,NA,NA,NA,NA,NA,NA,NA,NA,NA,NA,NA,NA,NA,NA,NA,NA,NA,NA,NA,NA,NA,NA,NA,NA,NA,NA,NA,NA,NA,NA,NA,NA,NA,NA,NA,NA,NA,NA,NA,NA,NA,NA,NA
a178bxd4ubx932,1,6,89728,2,NA,NA,NA,NA,0,threat,neutral,picture2.jpg,picture10.jpg,0,threat,neutral,picture4.jpg,picture4.jpg,0,neutral,threat,picture10.jpg,picture2.jpg,0,neutral,threat,picture3.jpg,picture3.jpg,1,neutral,neutral,picture9.jpg,picture9.jpg,0,neutral,neutral,picture1.jpg,picture3.jpg,1,neutral,neutral,picture8.jpg,picture8.jpg,0,neutral,threat,picture4.jpg,picture1.jpg,0,threat,neutral,picture3.jpg,picture1.jpg,0,threat,threat,picture1.jpg,picture4.jpg
a178bxd4ubx932,1,7,89728,NA,threat,0,neutral,0,NA,NA,NA,NA,NA,NA,NA,NA,NA,NA,NA,NA,NA,NA,NA,NA,NA,NA,NA,NA,NA,NA,NA,NA,NA,NA,NA,NA,NA,NA,NA,NA,NA,NA,NA,NA,NA,NA,NA,NA,NA,NA,NA,NA,NA,NA,NA,NA,NA,NA
a178bxd4ubx932,1,7,97788,2,NA,NA,NA,NA,0,threat,neutral,picture2.jpg,picture10.jpg,0,threat,neutral,picture4.jpg,picture4.jpg,0,neutral,threat,picture10.jpg,picture2.jpg,0,neutral,threat,picture3.jpg,picture3.jpg,1,neutral,neutral,picture9.jpg,picture9.jpg,0,threat,neutral,picture1.jpg,picture3.jpg,1,neutral,neutral,picture8.jpg,picture8.jpg,0,neutral,threat,picture4.jpg,picture1.jpg,0,threat,neutral,picture3.jpg,picture1.jpg,0,neutral,threat,picture1.jpg,picture4.jpg
a178bxd4ubx932,1,8,97788,NA,neutral,0,threat,0,NA,NA,NA,NA,NA,NA,NA,NA,NA,NA,NA,NA,NA,NA,NA,NA,NA,NA,NA,NA,NA,NA,NA,NA,NA,NA,NA,NA,NA,NA,NA,NA,NA,NA,NA,NA,NA,NA,NA,NA,NA,NA,NA,NA,NA,NA,NA,NA,NA,NA
a178bxd4ubx932,1,8,99908,2,NA,NA,NA,NA,0,threat,neutral,picture2.jpg,picture10.jpg,0,threat,neutral,picture4.jpg,picture4.jpg,0,neutral,threat,picture10.jpg,picture2.jpg,0,neutral,threat,picture3.jpg,picture3.jpg,1,neutral,neutral,picture9.jpg,picture9.jpg,0,threat,neutral,picture1.jpg,picture3.jpg,1,neutral,neutral,picture8.jpg,picture8.jpg,0,threat,threat,picture3.jpg,picture1.jpg,0,neutral,neutral,picture4.jpg,picture1.jpg,0,neutral,threat,picture1.jpg,picture4.jpg
a178bxd4ubx932,1,9,99908,NA,neutral,1,neutral,0,NA,NA,NA,NA,NA,NA,NA,NA,NA,NA,NA,NA,NA,NA,NA,NA,NA,NA,NA,NA,NA,NA,NA,NA,NA,NA,NA,NA,NA,NA,NA,NA,NA,NA,NA,NA,NA,NA,NA,NA,NA,NA,NA,NA,NA,NA,NA,NA,NA,NA
a178bxd4ubx932,1,9,102147,3,NA,NA,NA,NA,0,threat,neutral,picture2.jpg,picture10.jpg,0,threat,neutral,picture4.jpg,picture4.jpg,0,neutral,threat,picture10.jpg,picture2.jpg,0,neutral,threat,picture3.jpg,picture3.jpg,1,neutral,neutral,picture9.jpg,picture9.jpg,0,threat,neutral,picture1.jpg,picture3.jpg,1,neutral,neutral,picture8.jpg,picture8.jpg,0,threat,threat,picture3.jpg,picture1.jpg,1,neutral,neutral,picture1.jpg,picture1.jpg,0,neutral,threat,picture4.jpg,picture4.jpg
a178bxd4ubx932,1,10,102147,NA,neutral,0,threat,0,NA,NA,NA,NA,NA,NA,NA,NA,NA,NA,NA,NA,NA,NA,NA,NA,NA,NA,NA,NA,NA,NA,NA,NA,NA,NA,NA,NA,NA,NA,NA,NA,NA,NA,NA,NA,NA,NA,NA,NA,NA,NA,NA,NA,NA,NA,NA,NA,NA,NA
a178bxd4ubx932,1,10,105921,3,NA,NA,NA,NA,0,threat,neutral,picture2.jpg,picture10.jpg,0,threat,neutral,picture4.jpg,picture4.jpg,0,neutral,threat,picture10.jpg,picture2.jpg,0,neutral,threat,picture3.jpg,picture3.jpg,1,neutral,neutral,picture9.jpg,picture9.jpg,0,threat,neutral,picture1.jpg,picture3.jpg,1,neutral,neutral,picture8.jpg,picture8.jpg,0,neutral,threat,picture4.jpg,picture1.jpg,1,neutral,neutral,picture1.jpg,picture1.jpg,0,threat,threat,picture3.jpg,picture4.jpg
a178bxd4ubx932,1,11,105921,NA,threat,1,neutral,0,NA,NA,NA,NA,NA,NA,NA,NA,NA,NA,NA,NA,NA,NA,NA,NA,NA,NA,NA,NA,NA,NA,NA,NA,NA,NA,NA,NA,NA,NA,NA,NA,NA,NA,NA,NA,NA,NA,NA,NA,NA,NA,NA,NA,NA,NA,NA,NA,NA,NA
a178bxd4ubx932,1,11,108928,4,NA,NA,NA,NA,0,threat,neutral,picture2.jpg,picture10.jpg,0,threat,neutral,picture4.jpg,picture4.jpg,0,neutral,threat,picture10.jpg,picture2.jpg,0,neutral,threat,picture3.jpg,picture3.jpg,1,neutral,neutral,picture9.jpg,picture9.jpg,0,neutral,neutral,picture4.jpg,picture3.jpg,1,neutral,neutral,picture8.jpg,picture8.jpg,1,threat,threat,picture1.jpg,picture1.jpg,1,neutral,neutral,picture1.jpg,picture1.jpg,0,threat,threat,picture3.jpg,picture4.jpg
a178bxd4ubx932,1,12,108928,NA,threat,0,threat,0,NA,NA,NA,NA,NA,NA,NA,NA,NA,NA,NA,NA,NA,NA,NA,NA,NA,NA,NA,NA,NA,NA,NA,NA,NA,NA,NA,NA,NA,NA,NA,NA,NA,NA,NA,NA,NA,NA,NA,NA,NA,NA,NA,NA,NA,NA,NA,NA,NA,NA
a178bxd4ubx932,1,12,112278,4,NA,NA,NA,NA,0,threat,neutral,picture3.jpg,picture10.jpg,0,threat,neutral,picture4.jpg,picture4.jpg,0,neutral,threat,picture10.jpg,picture2.jpg,0,neutral,threat,picture3.jpg,picture3.jpg,1,neutral,neutral,picture9.jpg,picture9.jpg,0,neutral,neutral,picture4.jpg,picture3.jpg,1,neutral,neutral,picture8.jpg,picture8.jpg,1,threat,threat,picture1.jpg,picture1.jpg,1,neutral,neutral,picture1.jpg,picture1.jpg,0,threat,threat,picture2.jpg,picture4.jpg
a178bxd4ubx932,1,13,112278,NA,threat,0,threat,0,NA,NA,NA,NA,NA,NA,NA,NA,NA,NA,NA,NA,NA,NA,NA,NA,NA,NA,NA,NA,NA,NA,NA,NA,NA,NA,NA,NA,NA,NA,NA,NA,NA,NA,NA,NA,NA,NA,NA,NA,NA,NA,NA,NA,NA,NA,NA,NA,NA,NA
a178bxd4ubx932,1,13,115789,4,NA,NA,NA,NA,0,threat,neutral,picture4.jpg,picture10.jpg,0,threat,neutral,picture3.jpg,picture4.jpg,0,neutral,threat,picture10.jpg,picture2.jpg,0,neutral,threat,picture3.jpg,picture3.jpg,1,neutral,neutral,picture9.jpg,picture9.jpg,0,neutral,neutral,picture4.jpg,picture3.jpg,1,neutral,neutral,picture8.jpg,picture8.jpg,1,threat,threat,picture1.jpg,picture1.jpg,1,neutral,neutral,picture1.jpg,picture1.jpg,0,threat,threat,picture2.jpg,picture4.jpg
a178bxd4ubx932,1,14,115789,NA,neutral,0,threat,0,NA,NA,NA,NA,NA,NA,NA,NA,NA,NA,NA,NA,NA,NA,NA,NA,NA,NA,NA,NA,NA,NA,NA,NA,NA,NA,NA,NA,NA,NA,NA,NA,NA,NA,NA,NA,NA,NA,NA,NA,NA,NA,NA,NA,NA,NA,NA,NA,NA,NA
a178bxd4ubx932,1,14,117957,4,NA,NA,NA,NA,0,threat,neutral,picture4.jpg,picture10.jpg,0,neutral,neutral,picture10.jpg,picture4.jpg,0,threat,threat,picture3.jpg,picture2.jpg,0,neutral,threat,picture3.jpg,picture3.jpg,1,neutral,neutral,picture9.jpg,picture9.jpg,0,neutral,neutral,picture4.jpg,picture3.jpg,1,neutral,neutral,picture8.jpg,picture8.jpg,1,threat,threat,picture1.jpg,picture1.jpg,1,neutral,neutral,picture1.jpg,picture1.jpg,0,threat,threat,picture2.jpg,picture4.jpg
a178bxd4ubx932,1,15,117957,NA,threat,1,neutral,0,NA,NA,NA,NA,NA,NA,NA,NA,NA,NA,NA,NA,NA,NA,NA,NA,NA,NA,NA,NA,NA,NA,NA,NA,NA,NA,NA,NA,NA,NA,NA,NA,NA,NA,NA,NA,NA,NA,NA,NA,NA,NA,NA,NA,NA,NA,NA,NA,NA,NA
a178bxd4ubx932,1,15,121131,5,NA,NA,NA,NA,0,threat,neutral,picture4.jpg,picture10.jpg,0,neutral,neutral,picture10.jpg,picture4.jpg,0,neutral,threat,picture3.jpg,picture2.jpg,1,threat,threat,picture3.jpg,picture3.jpg,1,neutral,neutral,picture9.jpg,picture9.jpg,0,neutral,neutral,picture4.jpg,picture3.jpg,1,neutral,neutral,picture8.jpg,picture8.jpg,1,threat,threat,picture1.jpg,picture1.jpg,1,neutral,neutral,picture1.jpg,picture1.jpg,0,threat,threat,picture2.jpg,picture4.jpg
a178bxd4ubx932,1,16,121131,NA,neutral,0,threat,0,NA,NA,NA,NA,NA,NA,NA,NA,NA,NA,NA,NA,NA,NA,NA,NA,NA,NA,NA,NA,NA,NA,NA,NA,NA,NA,NA,NA,NA,NA,NA,NA,NA,NA,NA,NA,NA,NA,NA,NA,NA,NA,NA,NA,NA,NA,NA,NA,NA,NA
a178bxd4ubx932,1,16,124770,5,NA,NA,NA,NA,0,neutral,neutral,picture3.jpg,picture10.jpg,0,neutral,neutral,picture10.jpg,picture4.jpg,0,threat,threat,picture4.jpg,picture2.jpg,1,threat,threat,picture3.jpg,picture3.jpg,1,neutral,neutral,picture9.jpg,picture9.jpg,0,neutral,neutral,picture4.jpg,picture3.jpg,1,neutral,neutral,picture8.jpg,picture8.jpg,1,threat,threat,picture1.jpg,picture1.jpg,1,neutral,neutral,picture1.jpg,picture1.jpg,0,threat,threat,picture2.jpg,picture4.jpg
a178bxd4ubx932,1,17,124770,NA,neutral,0,threat,0,NA,NA,NA,NA,NA,NA,NA,NA,NA,NA,NA,NA,NA,NA,NA,NA,NA,NA,NA,NA,NA,NA,NA,NA,NA,NA,NA,NA,NA,NA,NA,NA,NA,NA,NA,NA,NA,NA,NA,NA,NA,NA,NA,NA,NA,NA,NA,NA,NA,NA
a178bxd4ubx932,1,17,129317,5,NA,NA,NA,NA,0,neutral,neutral,picture3.jpg,picture10.jpg,0,threat,neutral,picture2.jpg,picture4.jpg,0,threat,threat,picture4.jpg,picture2.jpg,1,threat,threat,picture3.jpg,picture3.jpg,1,neutral,neutral,picture9.jpg,picture9.jpg,0,neutral,neutral,picture4.jpg,picture3.jpg,1,neutral,neutral,picture8.jpg,picture8.jpg,1,threat,threat,picture1.jpg,picture1.jpg,1,neutral,neutral,picture1.jpg,picture1.jpg,0,neutral,threat,picture10.jpg,picture4.jpg
a178bxd4ubx932,1,18,129317,NA,neutral,0,neutral,0,NA,NA,NA,NA,NA,NA,NA,NA,NA,NA,NA,NA,NA,NA,NA,NA,NA,NA,NA,NA,NA,NA,NA,NA,NA,NA,NA,NA,NA,NA,NA,NA,NA,NA,NA,NA,NA,NA,NA,NA,NA,NA,NA,NA,NA,NA,NA,NA,NA,NA
a178bxd4ubx932,1,18,131596,5,NA,NA,NA,NA,0,neutral,neutral,picture3.jpg,picture10.jpg,0,threat,neutral,picture2.jpg,picture4.jpg,0,threat,threat,picture4.jpg,picture2.jpg,1,threat,threat,picture3.jpg,picture3.jpg,1,neutral,neutral,picture9.jpg,picture9.jpg,0,neutral,neutral,picture10.jpg,picture3.jpg,1,neutral,neutral,picture8.jpg,picture8.jpg,1,threat,threat,picture1.jpg,picture1.jpg,1,neutral,neutral,picture1.jpg,picture1.jpg,0,neutral,threat,picture4.jpg,picture4.jpg
a178bxd4ubx932,1,19,131596,NA,neutral,1,neutral,1,NA,NA,NA,NA,NA,NA,NA,NA,NA,NA,NA,NA,NA,NA,NA,NA,NA,NA,NA,NA,NA,NA,NA,NA,NA,NA,NA,NA,NA,NA,NA,NA,NA,NA,NA,NA,NA,NA,NA,NA,NA,NA,NA,NA,NA,NA,NA,NA,NA,NA
a178bxd4ubx932,1,19,134565,7,NA,NA,NA,NA,1,neutral,neutral,picture10.jpg,picture10.jpg,0,threat,neutral,picture2.jpg,picture4.jpg,0,threat,threat,picture4.jpg,picture2.jpg,1,threat,threat,picture3.jpg,picture3.jpg,1,neutral,neutral,picture9.jpg,picture9.jpg,1,neutral,neutral,picture3.jpg,picture3.jpg,1,neutral,neutral,picture8.jpg,picture8.jpg,1,threat,threat,picture1.jpg,picture1.jpg,1,neutral,neutral,picture1.jpg,picture1.jpg,0,neutral,threat,picture4.jpg,picture4.jpg
a178bxd4ubx932,1,20,134565,NA,threat,1,threat,0,NA,NA,NA,NA,NA,NA,NA,NA,NA,NA,NA,NA,NA,NA,NA,NA,NA,NA,NA,NA,NA,NA,NA,NA,NA,NA,NA,NA,NA,NA,NA,NA,NA,NA,NA,NA,NA,NA,NA,NA,NA,NA,NA,NA,NA,NA,NA,NA,NA,NA
a178bxd4ubx932,1,20,138065,8,NA,NA,NA,NA,1,neutral,neutral,picture10.jpg,picture10.jpg,0,threat,neutral,picture4.jpg,picture4.jpg,1,threat,threat,picture2.jpg,picture2.jpg,1,threat,threat,picture3.jpg,picture3.jpg,1,neutral,neutral,picture9.jpg,picture9.jpg,1,neutral,neutral,picture3.jpg,picture3.jpg,1,neutral,neutral,picture8.jpg,picture8.jpg,1,threat,threat,picture1.jpg,picture1.jpg,1,neutral,neutral,picture1.jpg,picture1.jpg,0,neutral,threat,picture4.jpg,picture4.jpg
a178bxd4ubx932,1,21,138065,NA,threat,1,neutral,1,NA,NA,NA,NA,NA,NA,NA,NA,NA,NA,NA,NA,NA,NA,NA,NA,NA,NA,NA,NA,NA,NA,NA,NA,NA,NA,NA,NA,NA,NA,NA,NA,NA,NA,NA,NA,NA,NA,NA,NA,NA,NA,NA,NA,NA,NA,NA,NA,NA,NA
a178bxd4ubx932,1,21,140795,10,NA,NA,NA,NA,1,neutral,neutral,picture10.jpg,picture10.jpg,1,neutral,neutral,picture4.jpg,picture4.jpg,1,threat,threat,picture2.jpg,picture2.jpg,1,threat,threat,picture3.jpg,picture3.jpg,1,neutral,neutral,picture9.jpg,picture9.jpg,1,neutral,neutral,picture3.jpg,picture3.jpg,1,neutral,neutral,picture8.jpg,picture8.jpg,1,threat,threat,picture1.jpg,picture1.jpg,1,neutral,neutral,picture1.jpg,picture1.jpg,1,threat,threat,picture4.jpg,picture4.jpg
a178bxd4ubx932,2,1,-501377,NA,neutral,1,NA,NA,NA,NA,NA,NA,NA,NA,NA,NA,NA,NA,NA,NA,NA,NA,NA,NA,NA,NA,NA,NA,NA,NA,NA,NA,NA,NA,NA,NA,NA,NA,NA,NA,NA,NA,NA,NA,NA,NA,NA,NA,NA,NA,NA,NA,NA,NA,NA,NA,NA,NA
a178bxd4ubx932,2,1,-501377,NA,neutral,1,NA,NA,NA,NA,NA,NA,NA,NA,NA,NA,NA,NA,NA,NA,NA,NA,NA,NA,NA,NA,NA,NA,NA,NA,NA,NA,NA,NA,NA,NA,NA,NA,NA,NA,NA,NA,NA,NA,NA,NA,NA,NA,NA,NA,NA,NA,NA,NA,NA,NA,NA,NA
a178bxd4ubx932,2,1,-501377,NA,neutral,1,NA,NA,NA,NA,NA,NA,NA,NA,NA,NA,NA,NA,NA,NA,NA,NA,NA,NA,NA,NA,NA,NA,NA,NA,NA,NA,NA,NA,NA,NA,NA,NA,NA,NA,NA,NA,NA,NA,NA,NA,NA,NA,NA,NA,NA,NA,NA,NA,NA,NA,NA,NA
a178bxd4ubx932,2,1,-501377,NA,threat,1,NA,NA,NA,NA,NA,NA,NA,NA,NA,NA,NA,NA,NA,NA,NA,NA,NA,NA,NA,NA,NA,NA,NA,NA,NA,NA,NA,NA,NA,NA,NA,NA,NA,NA,NA,NA,NA,NA,NA,NA,NA,NA,NA,NA,NA,NA,NA,NA,NA,NA,NA,NA
a178bxd4ubx932,2,1,-501377,NA,threat,1,NA,NA,NA,NA,NA,NA,NA,NA,NA,NA,NA,NA,NA,NA,NA,NA,NA,NA,NA,NA,NA,NA,NA,NA,NA,NA,NA,NA,NA,NA,NA,NA,NA,NA,NA,NA,NA,NA,NA,NA,NA,NA,NA,NA,NA,NA,NA,NA,NA,NA,NA,NA
a178bxd4ubx932,2,1,-501377,NA,neutral,1,NA,NA,NA,NA,NA,NA,NA,NA,NA,NA,NA,NA,NA,NA,NA,NA,NA,NA,NA,NA,NA,NA,NA,NA,NA,NA,NA,NA,NA,NA,NA,NA,NA,NA,NA,NA,NA,NA,NA,NA,NA,NA,NA,NA,NA,NA,NA,NA,NA,NA,NA,NA
a178bxd4ubx932,2,1,-501377,NA,neutral,0,NA,NA,NA,NA,NA,NA,NA,NA,NA,NA,NA,NA,NA,NA,NA,NA,NA,NA,NA,NA,NA,NA,NA,NA,NA,NA,NA,NA,NA,NA,NA,NA,NA,NA,NA,NA,NA,NA,NA,NA,NA,NA,NA,NA,NA,NA,NA,NA,NA,NA,NA,NA
a178bxd4ubx932,2,1,-501377,NA,neutral,1,NA,NA,NA,NA,NA,NA,NA,NA,NA,NA,NA,NA,NA,NA,NA,NA,NA,NA,NA,NA,NA,NA,NA,NA,NA,NA,NA,NA,NA,NA,NA,NA,NA,NA,NA,NA,NA,NA,NA,NA,NA,NA,NA,NA,NA,NA,NA,NA,NA,NA,NA,NA
a178bxd4ubx932,2,1,-501377,NA,threat,1,NA,NA,NA,NA,NA,NA,NA,NA,NA,NA,NA,NA,NA,NA,NA,NA,NA,NA,NA,NA,NA,NA,NA,NA,NA,NA,NA,NA,NA,NA,NA,NA,NA,NA,NA,NA,NA,NA,NA,NA,NA,NA,NA,NA,NA,NA,NA,NA,NA,NA,NA,NA
a178bxd4ubx932,2,1,-501377,NA,neutral,1,NA,NA,NA,NA,NA,NA,NA,NA,NA,NA,NA,NA,NA,NA,NA,NA,NA,NA,NA,NA,NA,NA,NA,NA,NA,NA,NA,NA,NA,NA,NA,NA,NA,NA,NA,NA,NA,NA,NA,NA,NA,NA,NA,NA,NA,NA,NA,NA,NA,NA,NA,NA
a178bxd4ubx932,2,1,-501377,NA,threat,1,NA,NA,NA,NA,NA,NA,NA,NA,NA,NA,NA,NA,NA,NA,NA,NA,NA,NA,NA,NA,NA,NA,NA,NA,NA,NA,NA,NA,NA,NA,NA,NA,NA,NA,NA,NA,NA,NA,NA,NA,NA,NA,NA,NA,NA,NA,NA,NA,NA,NA,NA,NA
a178bxd4ubx932,2,1,38115,10,NA,NA,NA,NA,1,neutral,neutral,picture10.jpg,picture10.jpg,1,neutral,neutral,picture4.jpg,picture4.jpg,1,threat,threat,picture2.jpg,picture2.jpg,1,threat,threat,picture3.jpg,picture3.jpg,1,neutral,neutral,picture9.jpg,picture9.jpg,1,neutral,neutral,picture3.jpg,picture3.jpg,1,neutral,neutral,picture8.jpg,picture8.jpg,1,threat,threat,picture1.jpg,picture1.jpg,1,neutral,neutral,picture1.jpg,picture1.jpg,1,threat,threat,picture4.jpg,picture4.jpg
a178bxd4ubx932,3,1,-8492,NA,neutral,1,NA,NA,NA,NA,NA,NA,NA,NA,NA,NA,NA,NA,NA,NA,NA,NA,NA,NA,NA,NA,NA,NA,NA,NA,NA,NA,NA,NA,NA,NA,NA,NA,NA,NA,NA,NA,NA,NA,NA,NA,NA,NA,NA,NA,NA,NA,NA,NA,NA,NA,NA,NA
a178bxd4ubx932,3,1,-8492,NA,neutral,1,NA,NA,NA,NA,NA,NA,NA,NA,NA,NA,NA,NA,NA,NA,NA,NA,NA,NA,NA,NA,NA,NA,NA,NA,NA,NA,NA,NA,NA,NA,NA,NA,NA,NA,NA,NA,NA,NA,NA,NA,NA,NA,NA,NA,NA,NA,NA,NA,NA,NA,NA,NA
a178bxd4ubx932,3,1,-8492,NA,neutral,1,NA,NA,NA,NA,NA,NA,NA,NA,NA,NA,NA,NA,NA,NA,NA,NA,NA,NA,NA,NA,NA,NA,NA,NA,NA,NA,NA,NA,NA,NA,NA,NA,NA,NA,NA,NA,NA,NA,NA,NA,NA,NA,NA,NA,NA,NA,NA,NA,NA,NA,NA,NA
a178bxd4ubx932,3,1,-8492,NA,threat,1,NA,NA,NA,NA,NA,NA,NA,NA,NA,NA,NA,NA,NA,NA,NA,NA,NA,NA,NA,NA,NA,NA,NA,NA,NA,NA,NA,NA,NA,NA,NA,NA,NA,NA,NA,NA,NA,NA,NA,NA,NA,NA,NA,NA,NA,NA,NA,NA,NA,NA,NA,NA
a178bxd4ubx932,3,1,-8492,NA,threat,1,NA,NA,NA,NA,NA,NA,NA,NA,NA,NA,NA,NA,NA,NA,NA,NA,NA,NA,NA,NA,NA,NA,NA,NA,NA,NA,NA,NA,NA,NA,NA,NA,NA,NA,NA,NA,NA,NA,NA,NA,NA,NA,NA,NA,NA,NA,NA,NA,NA,NA,NA,NA
a178bxd4ubx932,3,1,-8492,NA,neutral,1,NA,NA,NA,NA,NA,NA,NA,NA,NA,NA,NA,NA,NA,NA,NA,NA,NA,NA,NA,NA,NA,NA,NA,NA,NA,NA,NA,NA,NA,NA,NA,NA,NA,NA,NA,NA,NA,NA,NA,NA,NA,NA,NA,NA,NA,NA,NA,NA,NA,NA,NA,NA
a178bxd4ubx932,3,1,-8492,NA,neutral,1,NA,NA,NA,NA,NA,NA,NA,NA,NA,NA,NA,NA,NA,NA,NA,NA,NA,NA,NA,NA,NA,NA,NA,NA,NA,NA,NA,NA,NA,NA,NA,NA,NA,NA,NA,NA,NA,NA,NA,NA,NA,NA,NA,NA,NA,NA,NA,NA,NA,NA,NA,NA
a178bxd4ubx932,3,1,-8492,NA,threat,1,NA,NA,NA,NA,NA,NA,NA,NA,NA,NA,NA,NA,NA,NA,NA,NA,NA,NA,NA,NA,NA,NA,NA,NA,NA,NA,NA,NA,NA,NA,NA,NA,NA,NA,NA,NA,NA,NA,NA,NA,NA,NA,NA,NA,NA,NA,NA,NA,NA,NA,NA,NA
a178bxd4ubx932,3,1,-8492,NA,neutral,1,NA,NA,NA,NA,NA,NA,NA,NA,NA,NA,NA,NA,NA,NA,NA,NA,NA,NA,NA,NA,NA,NA,NA,NA,NA,NA,NA,NA,NA,NA,NA,NA,NA,NA,NA,NA,NA,NA,NA,NA,NA,NA,NA,NA,NA,NA,NA,NA,NA,NA,NA,NA
a178bxd4ubx932,3,1,-8492,NA,threat,1,NA,NA,NA,NA,NA,NA,NA,NA,NA,NA,NA,NA,NA,NA,NA,NA,NA,NA,NA,NA,NA,NA,NA,NA,NA,NA,NA,NA,NA,NA,NA,NA,NA,NA,NA,NA,NA,NA,NA,NA,NA,NA,NA,NA,NA,NA,NA,NA,NA,NA,NA,NA
a178bxd4ubx932,3,1,72118,10,NA,NA,NA,NA,1,neutral,neutral,picture10.jpg,picture10.jpg,1,neutral,neutral,picture4.jpg,picture4.jpg,1,threat,threat,picture2.jpg,picture2.jpg,1,threat,threat,picture3.jpg,picture3.jpg,1,neutral,neutral,picture9.jpg,picture9.jpg,1,neutral,neutral,picture3.jpg,picture3.jpg,1,neutral,neutral,picture8.jpg,picture8.jpg,1,threat,threat,picture1.jpg,picture1.jpg,1,neutral,neutral,picture1.jpg,picture1.jpg,1,threat,threat,picture4.jpg,picture4.jpg
a178bxd4ubx932,4,1,-1193,NA,neutral,1,NA,NA,NA,NA,NA,NA,NA,NA,NA,NA,NA,NA,NA,NA,NA,NA,NA,NA,NA,NA,NA,NA,NA,NA,NA,NA,NA,NA,NA,NA,NA,NA,NA,NA,NA,NA,NA,NA,NA,NA,NA,NA,NA,NA,NA,NA,NA,NA,NA,NA,NA,NA
a178bxd4ubx932,4,1,-1193,NA,neutral,1,NA,NA,NA,NA,NA,NA,NA,NA,NA,NA,NA,NA,NA,NA,NA,NA,NA,NA,NA,NA,NA,NA,NA,NA,NA,NA,NA,NA,NA,NA,NA,NA,NA,NA,NA,NA,NA,NA,NA,NA,NA,NA,NA,NA,NA,NA,NA,NA,NA,NA,NA,NA
a178bxd4ubx932,4,1,-1193,NA,neutral,1,NA,NA,NA,NA,NA,NA,NA,NA,NA,NA,NA,NA,NA,NA,NA,NA,NA,NA,NA,NA,NA,NA,NA,NA,NA,NA,NA,NA,NA,NA,NA,NA,NA,NA,NA,NA,NA,NA,NA,NA,NA,NA,NA,NA,NA,NA,NA,NA,NA,NA,NA,NA
a178bxd4ubx932,4,1,-1193,NA,threat,1,NA,NA,NA,NA,NA,NA,NA,NA,NA,NA,NA,NA,NA,NA,NA,NA,NA,NA,NA,NA,NA,NA,NA,NA,NA,NA,NA,NA,NA,NA,NA,NA,NA,NA,NA,NA,NA,NA,NA,NA,NA,NA,NA,NA,NA,NA,NA,NA,NA,NA,NA,NA
a178bxd4ubx932,4,1,-1193,NA,threat,1,NA,NA,NA,NA,NA,NA,NA,NA,NA,NA,NA,NA,NA,NA,NA,NA,NA,NA,NA,NA,NA,NA,NA,NA,NA,NA,NA,NA,NA,NA,NA,NA,NA,NA,NA,NA,NA,NA,NA,NA,NA,NA,NA,NA,NA,NA,NA,NA,NA,NA,NA,NA
a178bxd4ubx932,4,1,-1193,NA,neutral,1,NA,NA,NA,NA,NA,NA,NA,NA,NA,NA,NA,NA,NA,NA,NA,NA,NA,NA,NA,NA,NA,NA,NA,NA,NA,NA,NA,NA,NA,NA,NA,NA,NA,NA,NA,NA,NA,NA,NA,NA,NA,NA,NA,NA,NA,NA,NA,NA,NA,NA,NA,NA
a178bxd4ubx932,4,1,-1193,NA,neutral,1,NA,NA,NA,NA,NA,NA,NA,NA,NA,NA,NA,NA,NA,NA,NA,NA,NA,NA,NA,NA,NA,NA,NA,NA,NA,NA,NA,NA,NA,NA,NA,NA,NA,NA,NA,NA,NA,NA,NA,NA,NA,NA,NA,NA,NA,NA,NA,NA,NA,NA,NA,NA
a178bxd4ubx932,4,1,-1193,NA,threat,1,NA,NA,NA,NA,NA,NA,NA,NA,NA,NA,NA,NA,NA,NA,NA,NA,NA,NA,NA,NA,NA,NA,NA,NA,NA,NA,NA,NA,NA,NA,NA,NA,NA,NA,NA,NA,NA,NA,NA,NA,NA,NA,NA,NA,NA,NA,NA,NA,NA,NA,NA,NA
a178bxd4ubx932,4,1,-1193,NA,neutral,1,NA,NA,NA,NA,NA,NA,NA,NA,NA,NA,NA,NA,NA,NA,NA,NA,NA,NA,NA,NA,NA,NA,NA,NA,NA,NA,NA,NA,NA,NA,NA,NA,NA,NA,NA,NA,NA,NA,NA,NA,NA,NA,NA,NA,NA,NA,NA,NA,NA,NA,NA,NA
a178bxd4ubx932,4,1,-1193,NA,threat,1,NA,NA,NA,NA,NA,NA,NA,NA,NA,NA,NA,NA,NA,NA,NA,NA,NA,NA,NA,NA,NA,NA,NA,NA,NA,NA,NA,NA,NA,NA,NA,NA,NA,NA,NA,NA,NA,NA,NA,NA,NA,NA,NA,NA,NA,NA,NA,NA,NA,NA,NA,NA
a178bxd4ubx932,4,1,25206,10,NA,NA,NA,NA,1,neutral,neutral,picture10.jpg,picture10.jpg,1,neutral,neutral,picture4.jpg,picture4.jpg,1,threat,threat,picture2.jpg,picture2.jpg,1,threat,threat,picture3.jpg,picture3.jpg,1,neutral,neutral,picture9.jpg,picture9.jpg,1,neutral,neutral,picture3.jpg,picture3.jpg,1,neutral,neutral,picture8.jpg,picture8.jpg,1,threat,threat,picture1.jpg,picture1.jpg,1,neutral,neutral,picture1.jpg,picture1.jpg,1,threat,threat,picture4.jpg,picture4.jpg
a2tbkohgx08vrk,1,1,NA,NA,neutral,1,NA,NA,NA,NA,NA,NA,NA,NA,NA,NA,NA,NA,NA,NA,NA,NA,NA,NA,NA,NA,NA,NA,NA,NA,NA,NA,NA,NA,NA,NA,NA,NA,NA,NA,NA,NA,NA,NA,NA,NA,NA,NA,NA,NA,NA,NA,NA,NA,NA,NA,NA,NA
a2tbkohgx08vrk,1,1,NA,NA,threat,0,NA,NA,NA,NA,NA,NA,NA,NA,NA,NA,NA,NA,NA,NA,NA,NA,NA,NA,NA,NA,NA,NA,NA,NA,NA,NA,NA,NA,NA,NA,NA,NA,NA,NA,NA,NA,NA,NA,NA,NA,NA,NA,NA,NA,NA,NA,NA,NA,NA,NA,NA,NA
a2tbkohgx08vrk,1,1,NA,NA,threat,0,NA,NA,NA,NA,NA,NA,NA,NA,NA,NA,NA,NA,NA,NA,NA,NA,NA,NA,NA,NA,NA,NA,NA,NA,NA,NA,NA,NA,NA,NA,NA,NA,NA,NA,NA,NA,NA,NA,NA,NA,NA,NA,NA,NA,NA,NA,NA,NA,NA,NA,NA,NA
a2tbkohgx08vrk,1,1,NA,NA,threat,0,NA,NA,NA,NA,NA,NA,NA,NA,NA,NA,NA,NA,NA,NA,NA,NA,NA,NA,NA,NA,NA,NA,NA,NA,NA,NA,NA,NA,NA,NA,NA,NA,NA,NA,NA,NA,NA,NA,NA,NA,NA,NA,NA,NA,NA,NA,NA,NA,NA,NA,NA,NA
a2tbkohgx08vrk,1,1,NA,NA,neutral,0,NA,NA,NA,NA,NA,NA,NA,NA,NA,NA,NA,NA,NA,NA,NA,NA,NA,NA,NA,NA,NA,NA,NA,NA,NA,NA,NA,NA,NA,NA,NA,NA,NA,NA,NA,NA,NA,NA,NA,NA,NA,NA,NA,NA,NA,NA,NA,NA,NA,NA,NA,NA
a2tbkohgx08vrk,1,1,NA,NA,neutral,0,NA,NA,NA,NA,NA,NA,NA,NA,NA,NA,NA,NA,NA,NA,NA,NA,NA,NA,NA,NA,NA,NA,NA,NA,NA,NA,NA,NA,NA,NA,NA,NA,NA,NA,NA,NA,NA,NA,NA,NA,NA,NA,NA,NA,NA,NA,NA,NA,NA,NA,NA,NA
a2tbkohgx08vrk,1,1,NA,NA,threat,0,NA,NA,NA,NA,NA,NA,NA,NA,NA,NA,NA,NA,NA,NA,NA,NA,NA,NA,NA,NA,NA,NA,NA,NA,NA,NA,NA,NA,NA,NA,NA,NA,NA,NA,NA,NA,NA,NA,NA,NA,NA,NA,NA,NA,NA,NA,NA,NA,NA,NA,NA,NA
a2tbkohgx08vrk,1,1,NA,NA,neutral,0,NA,NA,NA,NA,NA,NA,NA,NA,NA,NA,NA,NA,NA,NA,NA,NA,NA,NA,NA,NA,NA,NA,NA,NA,NA,NA,NA,NA,NA,NA,NA,NA,NA,NA,NA,NA,NA,NA,NA,NA,NA,NA,NA,NA,NA,NA,NA,NA,NA,NA,NA,NA
a2tbkohgx08vrk,1,1,NA,NA,neutral,0,NA,NA,NA,NA,NA,NA,NA,NA,NA,NA,NA,NA,NA,NA,NA,NA,NA,NA,NA,NA,NA,NA,NA,NA,NA,NA,NA,NA,NA,NA,NA,NA,NA,NA,NA,NA,NA,NA,NA,NA,NA,NA,NA,NA,NA,NA,NA,NA,NA,NA,NA,NA
a2tbkohgx08vrk,1,1,NA,NA,neutral,0,NA,NA,NA,NA,NA,NA,NA,NA,NA,NA,NA,NA,NA,NA,NA,NA,NA,NA,NA,NA,NA,NA,NA,NA,NA,NA,NA,NA,NA,NA,NA,NA,NA,NA,NA,NA,NA,NA,NA,NA,NA,NA,NA,NA,NA,NA,NA,NA,NA,NA,NA,NA
a2tbkohgx08vrk,1,1,40396,1,NA,NA,NA,NA,0,neutral,threat,picture7.jpg,picture3.jpg,0,threat,neutral,picture3.jpg,picture4.jpg,0,threat,threat,picture1.jpg,picture4.jpg,1,neutral,neutral,picture5.jpg,picture5.jpg,0,threat,neutral,picture2.jpg,picture10.jpg,0,threat,neutral,picture4.jpg,picture6.jpg,0,neutral,threat,picture4.jpg,picture2.jpg,0,neutral,neutral,picture1.jpg,picture7.jpg,0,neutral,threat,picture10.jpg,picture1.jpg,0,neutral,neutral,picture6.jpg,picture1.jpg
a2tbkohgx08vrk,1,2,40396,NA,threat,0,threat,0,NA,NA,NA,NA,NA,NA,NA,NA,NA,NA,NA,NA,NA,NA,NA,NA,NA,NA,NA,NA,NA,NA,NA,NA,NA,NA,NA,NA,NA,NA,NA,NA,NA,NA,NA,NA,NA,NA,NA,NA,NA,NA,NA,NA,NA,NA,NA,NA,NA,NA
a2tbkohgx08vrk,1,2,40396,NA,neutral,0,neutral,0,NA,NA,NA,NA,NA,NA,NA,NA,NA,NA,NA,NA,NA,NA,NA,NA,NA,NA,NA,NA,NA,NA,NA,NA,NA,NA,NA,NA,NA,NA,NA,NA,NA,NA,NA,NA,NA,NA,NA,NA,NA,NA,NA,NA,NA,NA,NA,NA,NA,NA
a2tbkohgx08vrk,1,2,40396,NA,neutral,0,threat,0,NA,NA,NA,NA,NA,NA,NA,NA,NA,NA,NA,NA,NA,NA,NA,NA,NA,NA,NA,NA,NA,NA,NA,NA,NA,NA,NA,NA,NA,NA,NA,NA,NA,NA,NA,NA,NA,NA,NA,NA,NA,NA,NA,NA,NA,NA,NA,NA,NA,NA
a2tbkohgx08vrk,1,2,40396,NA,neutral,0,neutral,1,NA,NA,NA,NA,NA,NA,NA,NA,NA,NA,NA,NA,NA,NA,NA,NA,NA,NA,NA,NA,NA,NA,NA,NA,NA,NA,NA,NA,NA,NA,NA,NA,NA,NA,NA,NA,NA,NA,NA,NA,NA,NA,NA,NA,NA,NA,NA,NA,NA,NA
a2tbkohgx08vrk,1,2,52680,2,NA,NA,NA,NA,0,neutral,threat,picture4.jpg,picture3.jpg,0,threat,neutral,picture3.jpg,picture4.jpg,0,threat,threat,picture2.jpg,picture4.jpg,1,neutral,neutral,picture5.jpg,picture5.jpg,0,threat,neutral,picture1.jpg,picture10.jpg,0,neutral,neutral,picture10.jpg,picture6.jpg,0,neutral,threat,picture7.jpg,picture2.jpg,0,neutral,neutral,picture6.jpg,picture7.jpg,0,threat,threat,picture4.jpg,picture1.jpg,1,neutral,neutral,picture1.jpg,picture1.jpg
a2tbkohgx08vrk,1,3,52680,NA,threat,0,neutral,0,NA,NA,NA,NA,NA,NA,NA,NA,NA,NA,NA,NA,NA,NA,NA,NA,NA,NA,NA,NA,NA,NA,NA,NA,NA,NA,NA,NA,NA,NA,NA,NA,NA,NA,NA,NA,NA,NA,NA,NA,NA,NA,NA,NA,NA,NA,NA,NA,NA,NA
a2tbkohgx08vrk,1,3,52680,NA,threat,1,neutral,0,NA,NA,NA,NA,NA,NA,NA,NA,NA,NA,NA,NA,NA,NA,NA,NA,NA,NA,NA,NA,NA,NA,NA,NA,NA,NA,NA,NA,NA,NA,NA,NA,NA,NA,NA,NA,NA,NA,NA,NA,NA,NA,NA,NA,NA,NA,NA,NA,NA,NA
a2tbkohgx08vrk,1,3,52680,NA,threat,0,neutral,0,NA,NA,NA,NA,NA,NA,NA,NA,NA,NA,NA,NA,NA,NA,NA,NA,NA,NA,NA,NA,NA,NA,NA,NA,NA,NA,NA,NA,NA,NA,NA,NA,NA,NA,NA,NA,NA,NA,NA,NA,NA,NA,NA,NA,NA,NA,NA,NA,NA,NA
a2tbkohgx08vrk,1,3,63781,3,NA,NA,NA,NA,0,threat,threat,picture1.jpg,picture3.jpg,0,threat,neutral,picture3.jpg,picture4.jpg,0,neutral,threat,picture7.jpg,picture4.jpg,1,neutral,neutral,picture5.jpg,picture5.jpg,0,neutral,neutral,picture4.jpg,picture10.jpg,0,threat,neutral,picture4.jpg,picture6.jpg,1,threat,threat,picture2.jpg,picture2.jpg,0,neutral,neutral,picture6.jpg,picture7.jpg,0,neutral,threat,picture10.jpg,picture1.jpg,1,neutral,neutral,picture1.jpg,picture1.jpg
a2tbkohgx08vrk,1,4,63781,NA,threat,0,neutral,1,NA,NA,NA,NA,NA,NA,NA,NA,NA,NA,NA,NA,NA,NA,NA,NA,NA,NA,NA,NA,NA,NA,NA,NA,NA,NA,NA,NA,NA,NA,NA,NA,NA,NA,NA,NA,NA,NA,NA,NA,NA,NA,NA,NA,NA,NA,NA,NA,NA,NA
a2tbkohgx08vrk,1,4,63781,NA,neutral,0,threat,0,NA,NA,NA,NA,NA,NA,NA,NA,NA,NA,NA,NA,NA,NA,NA,NA,NA,NA,NA,NA,NA,NA,NA,NA,NA,NA,NA,NA,NA,NA,NA,NA,NA,NA,NA,NA,NA,NA,NA,NA,NA,NA,NA,NA,NA,NA,NA,NA,NA,NA
a2tbkohgx08vrk,1,4,63781,NA,neutral,0,neutral,0,NA,NA,NA,NA,NA,NA,NA,NA,NA,NA,NA,NA,NA,NA,NA,NA,NA,NA,NA,NA,NA,NA,NA,NA,NA,NA,NA,NA,NA,NA,NA,NA,NA,NA,NA,NA,NA,NA,NA,NA,NA,NA,NA,NA,NA,NA,NA,NA,NA,NA
a2tbkohgx08vrk,1,4,74599,4,NA,NA,NA,NA,0,neutral,threat,picture7.jpg,picture3.jpg,1,neutral,neutral,picture4.jpg,picture4.jpg,0,threat,threat,picture1.jpg,picture4.jpg,1,neutral,neutral,picture5.jpg,picture5.jpg,0,threat,neutral,picture3.jpg,picture10.jpg,0,threat,neutral,picture4.jpg,picture6.jpg,1,threat,threat,picture2.jpg,picture2.jpg,0,neutral,neutral,picture10.jpg,picture7.jpg,0,neutral,threat,picture6.jpg,picture1.jpg,1,neutral,neutral,picture1.jpg,picture1.jpg
a2tbkohgx08vrk,1,5,74599,NA,neutral,0,threat,0,NA,NA,NA,NA,NA,NA,NA,NA,NA,NA,NA,NA,NA,NA,NA,NA,NA,NA,NA,NA,NA,NA,NA,NA,NA,NA,NA,NA,NA,NA,NA,NA,NA,NA,NA,NA,NA,NA,NA,NA,NA,NA,NA,NA,NA,NA,NA,NA,NA,NA
a2tbkohgx08vrk,1,5,74599,NA,threat,0,threat,0,NA,NA,NA,NA,NA,NA,NA,NA,NA,NA,NA,NA,NA,NA,NA,NA,NA,NA,NA,NA,NA,NA,NA,NA,NA,NA,NA,NA,NA,NA,NA,NA,NA,NA,NA,NA,NA,NA,NA,NA,NA,NA,NA,NA,NA,NA,NA,NA,NA,NA
a2tbkohgx08vrk,1,5,74599,NA,neutral,0,neutral,0,NA,NA,NA,NA,NA,NA,NA,NA,NA,NA,NA,NA,NA,NA,NA,NA,NA,NA,NA,NA,NA,NA,NA,NA,NA,NA,NA,NA,NA,NA,NA,NA,NA,NA,NA,NA,NA,NA,NA,NA,NA,NA,NA,NA,NA,NA,NA,NA,NA,NA
a2tbkohgx08vrk,1,5,83638,4,NA,NA,NA,NA,0,threat,threat,picture4.jpg,picture3.jpg,1,neutral,neutral,picture4.jpg,picture4.jpg,0,neutral,threat,picture7.jpg,picture4.jpg,1,neutral,neutral,picture5.jpg,picture5.jpg,0,threat,neutral,picture3.jpg,picture10.jpg,0,threat,neutral,picture1.jpg,picture6.jpg,1,threat,threat,picture2.jpg,picture2.jpg,0,neutral,neutral,picture6.jpg,picture7.jpg,0,neutral,threat,picture10.jpg,picture1.jpg,1,neutral,neutral,picture1.jpg,picture1.jpg
a2tbkohgx08vrk,1,6,83638,NA,threat,0,neutral,0,NA,NA,NA,NA,NA,NA,NA,NA,NA,NA,NA,NA,NA,NA,NA,NA,NA,NA,NA,NA,NA,NA,NA,NA,NA,NA,NA,NA,NA,NA,NA,NA,NA,NA,NA,NA,NA,NA,NA,NA,NA,NA,NA,NA,NA,NA,NA,NA,NA,NA
a2tbkohgx08vrk,1,6,88557,4,NA,NA,NA,NA,0,neutral,threat,picture6.jpg,picture3.jpg,1,neutral,neutral,picture4.jpg,picture4.jpg,0,neutral,threat,picture7.jpg,picture4.jpg,1,neutral,neutral,picture5.jpg,picture5.jpg,0,threat,neutral,picture3.jpg,picture10.jpg,0,threat,neutral,picture1.jpg,picture6.jpg,1,threat,threat,picture2.jpg,picture2.jpg,0,threat,neutral,picture4.jpg,picture7.jpg,0,neutral,threat,picture10.jpg,picture1.jpg,1,neutral,neutral,picture1.jpg,picture1.jpg
a2tbkohgx08vrk,1,7,88557,NA,threat,0,neutral,1,NA,NA,NA,NA,NA,NA,NA,NA,NA,NA,NA,NA,NA,NA,NA,NA,NA,NA,NA,NA,NA,NA,NA,NA,NA,NA,NA,NA,NA,NA,NA,NA,NA,NA,NA,NA,NA,NA,NA,NA,NA,NA,NA,NA,NA,NA,NA,NA,NA,NA
a2tbkohgx08vrk,1,7,92437,5,NA,NA,NA,NA,0,threat,threat,picture1.jpg,picture3.jpg,1,neutral,neutral,picture4.jpg,picture4.jpg,0,neutral,threat,picture7.jpg,picture4.jpg,1,neutral,neutral,picture5.jpg,picture5.jpg,0,threat,neutral,picture3.jpg,picture10.jpg,1,neutral,neutral,picture6.jpg,picture6.jpg,1,threat,threat,picture2.jpg,picture2.jpg,0,threat,neutral,picture4.jpg,picture7.jpg,0,neutral,threat,picture10.jpg,picture1.jpg,1,neutral,neutral,picture1.jpg,picture1.jpg
a2tbkohgx08vrk,1,8,92437,NA,threat,0,neutral,0,NA,NA,NA,NA,NA,NA,NA,NA,NA,NA,NA,NA,NA,NA,NA,NA,NA,NA,NA,NA,NA,NA,NA,NA,NA,NA,NA,NA,NA,NA,NA,NA,NA,NA,NA,NA,NA,NA,NA,NA,NA,NA,NA,NA,NA,NA,NA,NA,NA,NA
a2tbkohgx08vrk,1,8,96487,5,NA,NA,NA,NA,0,neutral,threat,picture7.jpg,picture3.jpg,1,neutral,neutral,picture4.jpg,picture4.jpg,0,threat,threat,picture1.jpg,picture4.jpg,1,neutral,neutral,picture5.jpg,picture5.jpg,0,threat,neutral,picture3.jpg,picture10.jpg,1,neutral,neutral,picture6.jpg,picture6.jpg,1,threat,threat,picture2.jpg,picture2.jpg,0,threat,neutral,picture4.jpg,picture7.jpg,0,neutral,threat,picture10.jpg,picture1.jpg,1,neutral,neutral,picture1.jpg,picture1.jpg
a2tbkohgx08vrk,1,9,96487,NA,neutral,0,neutral,0,NA,NA,NA,NA,NA,NA,NA,NA,NA,NA,NA,NA,NA,NA,NA,NA,NA,NA,NA,NA,NA,NA,NA,NA,NA,NA,NA,NA,NA,NA,NA,NA,NA,NA,NA,NA,NA,NA,NA,NA,NA,NA,NA,NA,NA,NA,NA,NA,NA,NA
a2tbkohgx08vrk,1,9,96487,NA,threat,0,threat,0,NA,NA,NA,NA,NA,NA,NA,NA,NA,NA,NA,NA,NA,NA,NA,NA,NA,NA,NA,NA,NA,NA,NA,NA,NA,NA,NA,NA,NA,NA,NA,NA,NA,NA,NA,NA,NA,NA,NA,NA,NA,NA,NA,NA,NA,NA,NA,NA,NA,NA
a2tbkohgx08vrk,1,9,102534,5,NA,NA,NA,NA,0,neutral,threat,picture10.jpg,picture3.jpg,1,neutral,neutral,picture4.jpg,picture4.jpg,0,threat,threat,picture1.jpg,picture4.jpg,1,neutral,neutral,picture5.jpg,picture5.jpg,0,threat,neutral,picture4.jpg,picture10.jpg,1,neutral,neutral,picture6.jpg,picture6.jpg,1,threat,threat,picture2.jpg,picture2.jpg,0,threat,neutral,picture3.jpg,picture7.jpg,0,neutral,threat,picture7.jpg,picture1.jpg,1,neutral,neutral,picture1.jpg,picture1.jpg
a2tbkohgx08vrk,1,10,102534,NA,neutral,1,threat,0,NA,NA,NA,NA,NA,NA,NA,NA,NA,NA,NA,NA,NA,NA,NA,NA,NA,NA,NA,NA,NA,NA,NA,NA,NA,NA,NA,NA,NA,NA,NA,NA,NA,NA,NA,NA,NA,NA,NA,NA,NA,NA,NA,NA,NA,NA,NA,NA,NA,NA
a2tbkohgx08vrk,1,10,102534,NA,threat,1,neutral,0,NA,NA,NA,NA,NA,NA,NA,NA,NA,NA,NA,NA,NA,NA,NA,NA,NA,NA,NA,NA,NA,NA,NA,NA,NA,NA,NA,NA,NA,NA,NA,NA,NA,NA,NA,NA,NA,NA,NA,NA,NA,NA,NA,NA,NA,NA,NA,NA,NA,NA
a2tbkohgx08vrk,1,10,108358,7,NA,NA,NA,NA,0,threat,threat,picture4.jpg,picture3.jpg,1,neutral,neutral,picture4.jpg,picture4.jpg,0,neutral,threat,picture7.jpg,picture4.jpg,1,neutral,neutral,picture5.jpg,picture5.jpg,1,neutral,neutral,picture10.jpg,picture10.jpg,1,neutral,neutral,picture6.jpg,picture6.jpg,1,threat,threat,picture2.jpg,picture2.jpg,0,threat,neutral,picture3.jpg,picture7.jpg,1,threat,threat,picture1.jpg,picture1.jpg,1,neutral,neutral,picture1.jpg,picture1.jpg
a2tbkohgx08vrk,1,11,108358,NA,threat,1,threat,0,NA,NA,NA,NA,NA,NA,NA,NA,NA,NA,NA,NA,NA,NA,NA,NA,NA,NA,NA,NA,NA,NA,NA,NA,NA,NA,NA,NA,NA,NA,NA,NA,NA,NA,NA,NA,NA,NA,NA,NA,NA,NA,NA,NA,NA,NA,NA,NA,NA,NA
a2tbkohgx08vrk,1,11,112568,8,NA,NA,NA,NA,1,threat,threat,picture3.jpg,picture3.jpg,1,neutral,neutral,picture4.jpg,picture4.jpg,0,neutral,threat,picture7.jpg,picture4.jpg,1,neutral,neutral,picture5.jpg,picture5.jpg,1,neutral,neutral,picture10.jpg,picture10.jpg,1,neutral,neutral,picture6.jpg,picture6.jpg,1,threat,threat,picture2.jpg,picture2.jpg,0,threat,neutral,picture4.jpg,picture7.jpg,1,threat,threat,picture1.jpg,picture1.jpg,1,neutral,neutral,picture1.jpg,picture1.jpg
a2tbkohgx08vrk,1,12,112568,NA,neutral,1,threat,1,NA,NA,NA,NA,NA,NA,NA,NA,NA,NA,NA,NA,NA,NA,NA,NA,NA,NA,NA,NA,NA,NA,NA,NA,NA,NA,NA,NA,NA,NA,NA,NA,NA,NA,NA,NA,NA,NA,NA,NA,NA,NA,NA,NA,NA,NA,NA,NA,NA,NA
a2tbkohgx08vrk,1,12,116985,10,NA,NA,NA,NA,1,threat,threat,picture3.jpg,picture3.jpg,1,neutral,neutral,picture4.jpg,picture4.jpg,1,threat,threat,picture4.jpg,picture4.jpg,1,neutral,neutral,picture5.jpg,picture5.jpg,1,neutral,neutral,picture10.jpg,picture10.jpg,1,neutral,neutral,picture6.jpg,picture6.jpg,1,threat,threat,picture2.jpg,picture2.jpg,1,neutral,neutral,picture7.jpg,picture7.jpg,1,threat,threat,picture1.jpg,picture1.jpg,1,neutral,neutral,picture1.jpg,picture1.jpg
a2tbkohgx08vrk,2,1,-16733,NA,neutral,1,NA,NA,NA,NA,NA,NA,NA,NA,NA,NA,NA,NA,NA,NA,NA,NA,NA,NA,NA,NA,NA,NA,NA,NA,NA,NA,NA,NA,NA,NA,NA,NA,NA,NA,NA,NA,NA,NA,NA,NA,NA,NA,NA,NA,NA,NA,NA,NA,NA,NA,NA,NA
a2tbkohgx08vrk,2,1,-16733,NA,threat,1,NA,NA,NA,NA,NA,NA,NA,NA,NA,NA,NA,NA,NA,NA,NA,NA,NA,NA,NA,NA,NA,NA,NA,NA,NA,NA,NA,NA,NA,NA,NA,NA,NA,NA,NA,NA,NA,NA,NA,NA,NA,NA,NA,NA,NA,NA,NA,NA,NA,NA,NA,NA
a2tbkohgx08vrk,2,1,-16733,NA,neutral,1,NA,NA,NA,NA,NA,NA,NA,NA,NA,NA,NA,NA,NA,NA,NA,NA,NA,NA,NA,NA,NA,NA,NA,NA,NA,NA,NA,NA,NA,NA,NA,NA,NA,NA,NA,NA,NA,NA,NA,NA,NA,NA,NA,NA,NA,NA,NA,NA,NA,NA,NA,NA
a2tbkohgx08vrk,2,1,-16733,NA,neutral,1,NA,NA,NA,NA,NA,NA,NA,NA,NA,NA,NA,NA,NA,NA,NA,NA,NA,NA,NA,NA,NA,NA,NA,NA,NA,NA,NA,NA,NA,NA,NA,NA,NA,NA,NA,NA,NA,NA,NA,NA,NA,NA,NA,NA,NA,NA,NA,NA,NA,NA,NA,NA
a2tbkohgx08vrk,2,1,-16733,NA,threat,1,NA,NA,NA,NA,NA,NA,NA,NA,NA,NA,NA,NA,NA,NA,NA,NA,NA,NA,NA,NA,NA,NA,NA,NA,NA,NA,NA,NA,NA,NA,NA,NA,NA,NA,NA,NA,NA,NA,NA,NA,NA,NA,NA,NA,NA,NA,NA,NA,NA,NA,NA,NA
a2tbkohgx08vrk,2,1,-16733,NA,neutral,1,NA,NA,NA,NA,NA,NA,NA,NA,NA,NA,NA,NA,NA,NA,NA,NA,NA,NA,NA,NA,NA,NA,NA,NA,NA,NA,NA,NA,NA,NA,NA,NA,NA,NA,NA,NA,NA,NA,NA,NA,NA,NA,NA,NA,NA,NA,NA,NA,NA,NA,NA,NA
a2tbkohgx08vrk,2,1,-16733,NA,neutral,1,NA,NA,NA,NA,NA,NA,NA,NA,NA,NA,NA,NA,NA,NA,NA,NA,NA,NA,NA,NA,NA,NA,NA,NA,NA,NA,NA,NA,NA,NA,NA,NA,NA,NA,NA,NA,NA,NA,NA,NA,NA,NA,NA,NA,NA,NA,NA,NA,NA,NA,NA,NA
a2tbkohgx08vrk,2,1,-16733,NA,neutral,1,NA,NA,NA,NA,NA,NA,NA,NA,NA,NA,NA,NA,NA,NA,NA,NA,NA,NA,NA,NA,NA,NA,NA,NA,NA,NA,NA,NA,NA,NA,NA,NA,NA,NA,NA,NA,NA,NA,NA,NA,NA,NA,NA,NA,NA,NA,NA,NA,NA,NA,NA,NA
a2tbkohgx08vrk,2,1,-16733,NA,threat,1,NA,NA,NA,NA,NA,NA,NA,NA,NA,NA,NA,NA,NA,NA,NA,NA,NA,NA,NA,NA,NA,NA,NA,NA,NA,NA,NA,NA,NA,NA,NA,NA,NA,NA,NA,NA,NA,NA,NA,NA,NA,NA,NA,NA,NA,NA,NA,NA,NA,NA,NA,NA
a2tbkohgx08vrk,2,1,-16733,NA,threat,1,NA,NA,NA,NA,NA,NA,NA,NA,NA,NA,NA,NA,NA,NA,NA,NA,NA,NA,NA,NA,NA,NA,NA,NA,NA,NA,NA,NA,NA,NA,NA,NA,NA,NA,NA,NA,NA,NA,NA,NA,NA,NA,NA,NA,NA,NA,NA,NA,NA,NA,NA,NA
a2tbkohgx08vrk,2,1,38292,10,NA,NA,NA,NA,1,threat,threat,picture3.jpg,picture3.jpg,1,neutral,neutral,picture4.jpg,picture4.jpg,1,threat,threat,picture4.jpg,picture4.jpg,1,neutral,neutral,picture5.jpg,picture5.jpg,1,neutral,neutral,picture10.jpg,picture10.jpg,1,neutral,neutral,picture6.jpg,picture6.jpg,1,threat,threat,picture2.jpg,picture2.jpg,1,neutral,neutral,picture7.jpg,picture7.jpg,1,threat,threat,picture1.jpg,picture1.jpg,1,neutral,neutral,picture1.jpg,picture1.jpg
a2tbkohgx08vrk,3,1,-2362,NA,threat,1,NA,NA,NA,NA,NA,NA,NA,NA,NA,NA,NA,NA,NA,NA,NA,NA,NA,NA,NA,NA,NA,NA,NA,NA,NA,NA,NA,NA,NA,NA,NA,NA,NA,NA,NA,NA,NA,NA,NA,NA,NA,NA,NA,NA,NA,NA,NA,NA,NA,NA,NA,NA
a2tbkohgx08vrk,3,1,-2362,NA,neutral,1,NA,NA,NA,NA,NA,NA,NA,NA,NA,NA,NA,NA,NA,NA,NA,NA,NA,NA,NA,NA,NA,NA,NA,NA,NA,NA,NA,NA,NA,NA,NA,NA,NA,NA,NA,NA,NA,NA,NA,NA,NA,NA,NA,NA,NA,NA,NA,NA,NA,NA,NA,NA
a2tbkohgx08vrk,3,1,-2362,NA,threat,1,NA,NA,NA,NA,NA,NA,NA,NA,NA,NA,NA,NA,NA,NA,NA,NA,NA,NA,NA,NA,NA,NA,NA,NA,NA,NA,NA,NA,NA,NA,NA,NA,NA,NA,NA,NA,NA,NA,NA,NA,NA,NA,NA,NA,NA,NA,NA,NA,NA,NA,NA,NA
a2tbkohgx08vrk,3,1,-2362,NA,threat,1,NA,NA,NA,NA,NA,NA,NA,NA,NA,NA,NA,NA,NA,NA,NA,NA,NA,NA,NA,NA,NA,NA,NA,NA,NA,NA,NA,NA,NA,NA,NA,NA,NA,NA,NA,NA,NA,NA,NA,NA,NA,NA,NA,NA,NA,NA,NA,NA,NA,NA,NA,NA
a2tbkohgx08vrk,3,1,-2362,NA,neutral,1,NA,NA,NA,NA,NA,NA,NA,NA,NA,NA,NA,NA,NA,NA,NA,NA,NA,NA,NA,NA,NA,NA,NA,NA,NA,NA,NA,NA,NA,NA,NA,NA,NA,NA,NA,NA,NA,NA,NA,NA,NA,NA,NA,NA,NA,NA,NA,NA,NA,NA,NA,NA
a2tbkohgx08vrk,3,1,-2362,NA,neutral,1,NA,NA,NA,NA,NA,NA,NA,NA,NA,NA,NA,NA,NA,NA,NA,NA,NA,NA,NA,NA,NA,NA,NA,NA,NA,NA,NA,NA,NA,NA,NA,NA,NA,NA,NA,NA,NA,NA,NA,NA,NA,NA,NA,NA,NA,NA,NA,NA,NA,NA,NA,NA
a2tbkohgx08vrk,3,1,-2362,NA,neutral,1,NA,NA,NA,NA,NA,NA,NA,NA,NA,NA,NA,NA,NA,NA,NA,NA,NA,NA,NA,NA,NA,NA,NA,NA,NA,NA,NA,NA,NA,NA,NA,NA,NA,NA,NA,NA,NA,NA,NA,NA,NA,NA,NA,NA,NA,NA,NA,NA,NA,NA,NA,NA
a2tbkohgx08vrk,3,1,-2362,NA,neutral,1,NA,NA,NA,NA,NA,NA,NA,NA,NA,NA,NA,NA,NA,NA,NA,NA,NA,NA,NA,NA,NA,NA,NA,NA,NA,NA,NA,NA,NA,NA,NA,NA,NA,NA,NA,NA,NA,NA,NA,NA,NA,NA,NA,NA,NA,NA,NA,NA,NA,NA,NA,NA
a2tbkohgx08vrk,3,1,-2362,NA,neutral,1,NA,NA,NA,NA,NA,NA,NA,NA,NA,NA,NA,NA,NA,NA,NA,NA,NA,NA,NA,NA,NA,NA,NA,NA,NA,NA,NA,NA,NA,NA,NA,NA,NA,NA,NA,NA,NA,NA,NA,NA,NA,NA,NA,NA,NA,NA,NA,NA,NA,NA,NA,NA
a2tbkohgx08vrk,3,1,-2362,NA,threat,1,NA,NA,NA,NA,NA,NA,NA,NA,NA,NA,NA,NA,NA,NA,NA,NA,NA,NA,NA,NA,NA,NA,NA,NA,NA,NA,NA,NA,NA,NA,NA,NA,NA,NA,NA,NA,NA,NA,NA,NA,NA,NA,NA,NA,NA,NA,NA,NA,NA,NA,NA,NA
a2tbkohgx08vrk,3,1,35629,10,NA,NA,NA,NA,1,threat,threat,picture3.jpg,picture3.jpg,1,neutral,neutral,picture4.jpg,picture4.jpg,1,threat,threat,picture4.jpg,picture4.jpg,1,neutral,neutral,picture5.jpg,picture5.jpg,1,neutral,neutral,picture10.jpg,picture10.jpg,1,neutral,neutral,picture6.jpg,picture6.jpg,1,threat,threat,picture2.jpg,picture2.jpg,1,neutral,neutral,picture7.jpg,picture7.jpg,1,threat,threat,picture1.jpg,picture1.jpg,1,neutral,neutral,picture1.jpg,picture1.jpg
a2tbkohgx08vrk,4,1,-3514,NA,threat,1,NA,NA,NA,NA,NA,NA,NA,NA,NA,NA,NA,NA,NA,NA,NA,NA,NA,NA,NA,NA,NA,NA,NA,NA,NA,NA,NA,NA,NA,NA,NA,NA,NA,NA,NA,NA,NA,NA,NA,NA,NA,NA,NA,NA,NA,NA,NA,NA,NA,NA,NA,NA
a2tbkohgx08vrk,4,1,-3514,NA,threat,1,NA,NA,NA,NA,NA,NA,NA,NA,NA,NA,NA,NA,NA,NA,NA,NA,NA,NA,NA,NA,NA,NA,NA,NA,NA,NA,NA,NA,NA,NA,NA,NA,NA,NA,NA,NA,NA,NA,NA,NA,NA,NA,NA,NA,NA,NA,NA,NA,NA,NA,NA,NA
a2tbkohgx08vrk,4,1,-3514,NA,neutral,1,NA,NA,NA,NA,NA,NA,NA,NA,NA,NA,NA,NA,NA,NA,NA,NA,NA,NA,NA,NA,NA,NA,NA,NA,NA,NA,NA,NA,NA,NA,NA,NA,NA,NA,NA,NA,NA,NA,NA,NA,NA,NA,NA,NA,NA,NA,NA,NA,NA,NA,NA,NA
a2tbkohgx08vrk,4,1,-3514,NA,threat,1,NA,NA,NA,NA,NA,NA,NA,NA,NA,NA,NA,NA,NA,NA,NA,NA,NA,NA,NA,NA,NA,NA,NA,NA,NA,NA,NA,NA,NA,NA,NA,NA,NA,NA,NA,NA,NA,NA,NA,NA,NA,NA,NA,NA,NA,NA,NA,NA,NA,NA,NA,NA
a2tbkohgx08vrk,4,1,-3514,NA,neutral,1,NA,NA,NA,NA,NA,NA,NA,NA,NA,NA,NA,NA,NA,NA,NA,NA,NA,NA,NA,NA,NA,NA,NA,NA,NA,NA,NA,NA,NA,NA,NA,NA,NA,NA,NA,NA,NA,NA,NA,NA,NA,NA,NA,NA,NA,NA,NA,NA,NA,NA,NA,NA
a2tbkohgx08vrk,4,1,-3514,NA,neutral,1,NA,NA,NA,NA,NA,NA,NA,NA,NA,NA,NA,NA,NA,NA,NA,NA,NA,NA,NA,NA,NA,NA,NA,NA,NA,NA,NA,NA,NA,NA,NA,NA,NA,NA,NA,NA,NA,NA,NA,NA,NA,NA,NA,NA,NA,NA,NA,NA,NA,NA,NA,NA
a2tbkohgx08vrk,4,1,-3514,NA,neutral,1,NA,NA,NA,NA,NA,NA,NA,NA,NA,NA,NA,NA,NA,NA,NA,NA,NA,NA,NA,NA,NA,NA,NA,NA,NA,NA,NA,NA,NA,NA,NA,NA,NA,NA,NA,NA,NA,NA,NA,NA,NA,NA,NA,NA,NA,NA,NA,NA,NA,NA,NA,NA
a2tbkohgx08vrk,4,1,-3514,NA,neutral,1,NA,NA,NA,NA,NA,NA,NA,NA,NA,NA,NA,NA,NA,NA,NA,NA,NA,NA,NA,NA,NA,NA,NA,NA,NA,NA,NA,NA,NA,NA,NA,NA,NA,NA,NA,NA,NA,NA,NA,NA,NA,NA,NA,NA,NA,NA,NA,NA,NA,NA,NA,NA
a2tbkohgx08vrk,4,1,-3514,NA,neutral,1,NA,NA,NA,NA,NA,NA,NA,NA,NA,NA,NA,NA,NA,NA,NA,NA,NA,NA,NA,NA,NA,NA,NA,NA,NA,NA,NA,NA,NA,NA,NA,NA,NA,NA,NA,NA,NA,NA,NA,NA,NA,NA,NA,NA,NA,NA,NA,NA,NA,NA,NA,NA
a2tbkohgx08vrk,4,1,-3514,NA,threat,1,NA,NA,NA,NA,NA,NA,NA,NA,NA,NA,NA,NA,NA,NA,NA,NA,NA,NA,NA,NA,NA,NA,NA,NA,NA,NA,NA,NA,NA,NA,NA,NA,NA,NA,NA,NA,NA,NA,NA,NA,NA,NA,NA,NA,NA,NA,NA,NA,NA,NA,NA,NA
a2tbkohgx08vrk,4,1,40339,10,NA,NA,NA,NA,1,threat,threat,picture3.jpg,picture3.jpg,1,neutral,neutral,picture4.jpg,picture4.jpg,1,threat,threat,picture4.jpg,picture4.jpg,1,neutral,neutral,picture5.jpg,picture5.jpg,1,neutral,neutral,picture10.jpg,picture10.jpg,1,neutral,neutral,picture6.jpg,picture6.jpg,1,threat,threat,picture2.jpg,picture2.jpg,1,neutral,neutral,picture7.jpg,picture7.jpg,1,threat,threat,picture1.jpg,picture1.jpg,1,neutral,neutral,picture1.jpg,picture1.jpg
a170wnufjk56wd,1,1,NA,NA,threat,0,NA,NA,NA,NA,NA,NA,NA,NA,NA,NA,NA,NA,NA,NA,NA,NA,NA,NA,NA,NA,NA,NA,NA,NA,NA,NA,NA,NA,NA,NA,NA,NA,NA,NA,NA,NA,NA,NA,NA,NA,NA,NA,NA,NA,NA,NA,NA,NA,NA,NA,NA,NA
a170wnufjk56wd,1,1,NA,NA,neutral,0,NA,NA,NA,NA,NA,NA,NA,NA,NA,NA,NA,NA,NA,NA,NA,NA,NA,NA,NA,NA,NA,NA,NA,NA,NA,NA,NA,NA,NA,NA,NA,NA,NA,NA,NA,NA,NA,NA,NA,NA,NA,NA,NA,NA,NA,NA,NA,NA,NA,NA,NA,NA
a170wnufjk56wd,1,1,NA,NA,neutral,0,NA,NA,NA,NA,NA,NA,NA,NA,NA,NA,NA,NA,NA,NA,NA,NA,NA,NA,NA,NA,NA,NA,NA,NA,NA,NA,NA,NA,NA,NA,NA,NA,NA,NA,NA,NA,NA,NA,NA,NA,NA,NA,NA,NA,NA,NA,NA,NA,NA,NA,NA,NA
a170wnufjk56wd,1,1,NA,NA,neutral,0,NA,NA,NA,NA,NA,NA,NA,NA,NA,NA,NA,NA,NA,NA,NA,NA,NA,NA,NA,NA,NA,NA,NA,NA,NA,NA,NA,NA,NA,NA,NA,NA,NA,NA,NA,NA,NA,NA,NA,NA,NA,NA,NA,NA,NA,NA,NA,NA,NA,NA,NA,NA
a170wnufjk56wd,1,1,NA,NA,threat,0,NA,NA,NA,NA,NA,NA,NA,NA,NA,NA,NA,NA,NA,NA,NA,NA,NA,NA,NA,NA,NA,NA,NA,NA,NA,NA,NA,NA,NA,NA,NA,NA,NA,NA,NA,NA,NA,NA,NA,NA,NA,NA,NA,NA,NA,NA,NA,NA,NA,NA,NA,NA
a170wnufjk56wd,1,1,NA,NA,threat,1,NA,NA,NA,NA,NA,NA,NA,NA,NA,NA,NA,NA,NA,NA,NA,NA,NA,NA,NA,NA,NA,NA,NA,NA,NA,NA,NA,NA,NA,NA,NA,NA,NA,NA,NA,NA,NA,NA,NA,NA,NA,NA,NA,NA,NA,NA,NA,NA,NA,NA,NA,NA
a170wnufjk56wd,1,1,NA,NA,neutral,1,NA,NA,NA,NA,NA,NA,NA,NA,NA,NA,NA,NA,NA,NA,NA,NA,NA,NA,NA,NA,NA,NA,NA,NA,NA,NA,NA,NA,NA,NA,NA,NA,NA,NA,NA,NA,NA,NA,NA,NA,NA,NA,NA,NA,NA,NA,NA,NA,NA,NA,NA,NA
a170wnufjk56wd,1,1,NA,NA,neutral,0,NA,NA,NA,NA,NA,NA,NA,NA,NA,NA,NA,NA,NA,NA,NA,NA,NA,NA,NA,NA,NA,NA,NA,NA,NA,NA,NA,NA,NA,NA,NA,NA,NA,NA,NA,NA,NA,NA,NA,NA,NA,NA,NA,NA,NA,NA,NA,NA,NA,NA,NA,NA
a170wnufjk56wd,1,1,NA,NA,neutral,0,NA,NA,NA,NA,NA,NA,NA,NA,NA,NA,NA,NA,NA,NA,NA,NA,NA,NA,NA,NA,NA,NA,NA,NA,NA,NA,NA,NA,NA,NA,NA,NA,NA,NA,NA,NA,NA,NA,NA,NA,NA,NA,NA,NA,NA,NA,NA,NA,NA,NA,NA,NA
a170wnufjk56wd,1,1,NA,NA,threat,0,NA,NA,NA,NA,NA,NA,NA,NA,NA,NA,NA,NA,NA,NA,NA,NA,NA,NA,NA,NA,NA,NA,NA,NA,NA,NA,NA,NA,NA,NA,NA,NA,NA,NA,NA,NA,NA,NA,NA,NA,NA,NA,NA,NA,NA,NA,NA,NA,NA,NA,NA,NA
a170wnufjk56wd,1,1,37170,2,NA,NA,NA,NA,0,threat,threat,picture2.jpg,picture3.jpg,0,neutral,threat,picture1.jpg,picture2.jpg,0,threat,neutral,picture3.jpg,picture5.jpg,0,neutral,neutral,picture9.jpg,picture1.jpg,0,neutral,neutral,picture5.jpg,picture10.jpg,0,threat,neutral,picture4.jpg,picture7.jpg,0,neutral,threat,picture7.jpg,picture4.jpg,1,neutral,neutral,picture6.jpg,picture6.jpg,0,neutral,neutral,picture10.jpg,picture9.jpg,1,threat,threat,picture1.jpg,picture1.jpg
a170wnufjk56wd,1,2,37170,NA,neutral,0,neutral,0,NA,NA,NA,NA,NA,NA,NA,NA,NA,NA,NA,NA,NA,NA,NA,NA,NA,NA,NA,NA,NA,NA,NA,NA,NA,NA,NA,NA,NA,NA,NA,NA,NA,NA,NA,NA,NA,NA,NA,NA,NA,NA,NA,NA,NA,NA,NA,NA,NA,NA
a170wnufjk56wd,1,2,37170,NA,threat,1,neutral,0,NA,NA,NA,NA,NA,NA,NA,NA,NA,NA,NA,NA,NA,NA,NA,NA,NA,NA,NA,NA,NA,NA,NA,NA,NA,NA,NA,NA,NA,NA,NA,NA,NA,NA,NA,NA,NA,NA,NA,NA,NA,NA,NA,NA,NA,NA,NA,NA,NA,NA
a170wnufjk56wd,1,2,37170,NA,neutral,0,threat,0,NA,NA,NA,NA,NA,NA,NA,NA,NA,NA,NA,NA,NA,NA,NA,NA,NA,NA,NA,NA,NA,NA,NA,NA,NA,NA,NA,NA,NA,NA,NA,NA,NA,NA,NA,NA,NA,NA,NA,NA,NA,NA,NA,NA,NA,NA,NA,NA,NA,NA
a170wnufjk56wd,1,2,47329,3,NA,NA,NA,NA,0,neutral,threat,picture1.jpg,picture3.jpg,1,threat,threat,picture2.jpg,picture2.jpg,0,neutral,neutral,picture9.jpg,picture5.jpg,0,threat,neutral,picture3.jpg,picture1.jpg,0,neutral,neutral,picture7.jpg,picture10.jpg,0,threat,neutral,picture4.jpg,picture7.jpg,0,neutral,threat,picture5.jpg,picture4.jpg,1,neutral,neutral,picture6.jpg,picture6.jpg,0,neutral,neutral,picture10.jpg,picture9.jpg,1,threat,threat,picture1.jpg,picture1.jpg
a170wnufjk56wd,1,3,47329,NA,threat,1,neutral,0,NA,NA,NA,NA,NA,NA,NA,NA,NA,NA,NA,NA,NA,NA,NA,NA,NA,NA,NA,NA,NA,NA,NA,NA,NA,NA,NA,NA,NA,NA,NA,NA,NA,NA,NA,NA,NA,NA,NA,NA,NA,NA,NA,NA,NA,NA,NA,NA,NA,NA
a170wnufjk56wd,1,3,47329,NA,neutral,1,neutral,0,NA,NA,NA,NA,NA,NA,NA,NA,NA,NA,NA,NA,NA,NA,NA,NA,NA,NA,NA,NA,NA,NA,NA,NA,NA,NA,NA,NA,NA,NA,NA,NA,NA,NA,NA,NA,NA,NA,NA,NA,NA,NA,NA,NA,NA,NA,NA,NA,NA,NA
a170wnufjk56wd,1,3,58734,5,NA,NA,NA,NA,0,neutral,threat,picture1.jpg,picture3.jpg,1,threat,threat,picture2.jpg,picture2.jpg,0,neutral,neutral,picture9.jpg,picture5.jpg,0,threat,neutral,picture3.jpg,picture1.jpg,1,neutral,neutral,picture10.jpg,picture10.jpg,0,neutral,neutral,picture5.jpg,picture7.jpg,1,threat,threat,picture4.jpg,picture4.jpg,1,neutral,neutral,picture6.jpg,picture6.jpg,0,neutral,neutral,picture7.jpg,picture9.jpg,1,threat,threat,picture1.jpg,picture1.jpg
a170wnufjk56wd,1,4,58734,NA,neutral,0,neutral,1,NA,NA,NA,NA,NA,NA,NA,NA,NA,NA,NA,NA,NA,NA,NA,NA,NA,NA,NA,NA,NA,NA,NA,NA,NA,NA,NA,NA,NA,NA,NA,NA,NA,NA,NA,NA,NA,NA,NA,NA,NA,NA,NA,NA,NA,NA,NA,NA,NA,NA
a170wnufjk56wd,1,4,58734,NA,threat,1,neutral,1,NA,NA,NA,NA,NA,NA,NA,NA,NA,NA,NA,NA,NA,NA,NA,NA,NA,NA,NA,NA,NA,NA,NA,NA,NA,NA,NA,NA,NA,NA,NA,NA,NA,NA,NA,NA,NA,NA,NA,NA,NA,NA,NA,NA,NA,NA,NA,NA,NA,NA
a170wnufjk56wd,1,4,72390,8,NA,NA,NA,NA,1,threat,threat,picture3.jpg,picture3.jpg,1,threat,threat,picture2.jpg,picture2.jpg,0,neutral,neutral,picture9.jpg,picture5.jpg,1,neutral,neutral,picture1.jpg,picture1.jpg,1,neutral,neutral,picture10.jpg,picture10.jpg,1,neutral,neutral,picture7.jpg,picture7.jpg,1,threat,threat,picture4.jpg,picture4.jpg,1,neutral,neutral,picture6.jpg,picture6.jpg,0,neutral,neutral,picture5.jpg,picture9.jpg,1,threat,threat,picture1.jpg,picture1.jpg
a170wnufjk56wd,1,5,72390,NA,neutral,1,neutral,1,NA,NA,NA,NA,NA,NA,NA,NA,NA,NA,NA,NA,NA,NA,NA,NA,NA,NA,NA,NA,NA,NA,NA,NA,NA,NA,NA,NA,NA,NA,NA,NA,NA,NA,NA,NA,NA,NA,NA,NA,NA,NA,NA,NA,NA,NA,NA,NA,NA,NA
a170wnufjk56wd,1,5,84267,10,NA,NA,NA,NA,1,threat,threat,picture3.jpg,picture3.jpg,1,threat,threat,picture2.jpg,picture2.jpg,1,neutral,neutral,picture5.jpg,picture5.jpg,1,neutral,neutral,picture1.jpg,picture1.jpg,1,neutral,neutral,picture10.jpg,picture10.jpg,1,neutral,neutral,picture7.jpg,picture7.jpg,1,threat,threat,picture4.jpg,picture4.jpg,1,neutral,neutral,picture6.jpg,picture6.jpg,1,neutral,neutral,picture9.jpg,picture9.jpg,1,threat,threat,picture1.jpg,picture1.jpg
a170wnufjk56wd,2,1,-42512,NA,neutral,1,NA,NA,NA,NA,NA,NA,NA,NA,NA,NA,NA,NA,NA,NA,NA,NA,NA,NA,NA,NA,NA,NA,NA,NA,NA,NA,NA,NA,NA,NA,NA,NA,NA,NA,NA,NA,NA,NA,NA,NA,NA,NA,NA,NA,NA,NA,NA,NA,NA,NA,NA,NA
a170wnufjk56wd,2,1,-42512,NA,neutral,1,NA,NA,NA,NA,NA,NA,NA,NA,NA,NA,NA,NA,NA,NA,NA,NA,NA,NA,NA,NA,NA,NA,NA,NA,NA,NA,NA,NA,NA,NA,NA,NA,NA,NA,NA,NA,NA,NA,NA,NA,NA,NA,NA,NA,NA,NA,NA,NA,NA,NA,NA,NA
a170wnufjk56wd,2,1,-42512,NA,neutral,1,NA,NA,NA,NA,NA,NA,NA,NA,NA,NA,NA,NA,NA,NA,NA,NA,NA,NA,NA,NA,NA,NA,NA,NA,NA,NA,NA,NA,NA,NA,NA,NA,NA,NA,NA,NA,NA,NA,NA,NA,NA,NA,NA,NA,NA,NA,NA,NA,NA,NA,NA,NA
a170wnufjk56wd,2,1,-42512,NA,neutral,1,NA,NA,NA,NA,NA,NA,NA,NA,NA,NA,NA,NA,NA,NA,NA,NA,NA,NA,NA,NA,NA,NA,NA,NA,NA,NA,NA,NA,NA,NA,NA,NA,NA,NA,NA,NA,NA,NA,NA,NA,NA,NA,NA,NA,NA,NA,NA,NA,NA,NA,NA,NA
a170wnufjk56wd,2,1,-42512,NA,threat,1,NA,NA,NA,NA,NA,NA,NA,NA,NA,NA,NA,NA,NA,NA,NA,NA,NA,NA,NA,NA,NA,NA,NA,NA,NA,NA,NA,NA,NA,NA,NA,NA,NA,NA,NA,NA,NA,NA,NA,NA,NA,NA,NA,NA,NA,NA,NA,NA,NA,NA,NA,NA
a170wnufjk56wd,2,1,-42512,NA,neutral,1,NA,NA,NA,NA,NA,NA,NA,NA,NA,NA,NA,NA,NA,NA,NA,NA,NA,NA,NA,NA,NA,NA,NA,NA,NA,NA,NA,NA,NA,NA,NA,NA,NA,NA,NA,NA,NA,NA,NA,NA,NA,NA,NA,NA,NA,NA,NA,NA,NA,NA,NA,NA
a170wnufjk56wd,2,1,-42512,NA,threat,1,NA,NA,NA,NA,NA,NA,NA,NA,NA,NA,NA,NA,NA,NA,NA,NA,NA,NA,NA,NA,NA,NA,NA,NA,NA,NA,NA,NA,NA,NA,NA,NA,NA,NA,NA,NA,NA,NA,NA,NA,NA,NA,NA,NA,NA,NA,NA,NA,NA,NA,NA,NA
a170wnufjk56wd,2,1,-42512,NA,neutral,1,NA,NA,NA,NA,NA,NA,NA,NA,NA,NA,NA,NA,NA,NA,NA,NA,NA,NA,NA,NA,NA,NA,NA,NA,NA,NA,NA,NA,NA,NA,NA,NA,NA,NA,NA,NA,NA,NA,NA,NA,NA,NA,NA,NA,NA,NA,NA,NA,NA,NA,NA,NA
a170wnufjk56wd,2,1,-42512,NA,threat,1,NA,NA,NA,NA,NA,NA,NA,NA,NA,NA,NA,NA,NA,NA,NA,NA,NA,NA,NA,NA,NA,NA,NA,NA,NA,NA,NA,NA,NA,NA,NA,NA,NA,NA,NA,NA,NA,NA,NA,NA,NA,NA,NA,NA,NA,NA,NA,NA,NA,NA,NA,NA
a170wnufjk56wd,2,1,-42512,NA,threat,1,NA,NA,NA,NA,NA,NA,NA,NA,NA,NA,NA,NA,NA,NA,NA,NA,NA,NA,NA,NA,NA,NA,NA,NA,NA,NA,NA,NA,NA,NA,NA,NA,NA,NA,NA,NA,NA,NA,NA,NA,NA,NA,NA,NA,NA,NA,NA,NA,NA,NA,NA,NA
a170wnufjk56wd,2,1,39877,10,NA,NA,NA,NA,1,threat,threat,picture3.jpg,picture3.jpg,1,threat,threat,picture2.jpg,picture2.jpg,1,neutral,neutral,picture5.jpg,picture5.jpg,1,neutral,neutral,picture1.jpg,picture1.jpg,1,neutral,neutral,picture10.jpg,picture10.jpg,1,neutral,neutral,picture7.jpg,picture7.jpg,1,threat,threat,picture4.jpg,picture4.jpg,1,neutral,neutral,picture6.jpg,picture6.jpg,1,neutral,neutral,picture9.jpg,picture9.jpg,1,threat,threat,picture1.jpg,picture1.jpg
a170wnufjk56wd,3,1,-2996,NA,neutral,1,NA,NA,NA,NA,NA,NA,NA,NA,NA,NA,NA,NA,NA,NA,NA,NA,NA,NA,NA,NA,NA,NA,NA,NA,NA,NA,NA,NA,NA,NA,NA,NA,NA,NA,NA,NA,NA,NA,NA,NA,NA,NA,NA,NA,NA,NA,NA,NA,NA,NA,NA,NA
a170wnufjk56wd,3,1,-2996,NA,neutral,1,NA,NA,NA,NA,NA,NA,NA,NA,NA,NA,NA,NA,NA,NA,NA,NA,NA,NA,NA,NA,NA,NA,NA,NA,NA,NA,NA,NA,NA,NA,NA,NA,NA,NA,NA,NA,NA,NA,NA,NA,NA,NA,NA,NA,NA,NA,NA,NA,NA,NA,NA,NA
a170wnufjk56wd,3,1,-2996,NA,neutral,1,NA,NA,NA,NA,NA,NA,NA,NA,NA,NA,NA,NA,NA,NA,NA,NA,NA,NA,NA,NA,NA,NA,NA,NA,NA,NA,NA,NA,NA,NA,NA,NA,NA,NA,NA,NA,NA,NA,NA,NA,NA,NA,NA,NA,NA,NA,NA,NA,NA,NA,NA,NA
a170wnufjk56wd,3,1,-2996,NA,neutral,1,NA,NA,NA,NA,NA,NA,NA,NA,NA,NA,NA,NA,NA,NA,NA,NA,NA,NA,NA,NA,NA,NA,NA,NA,NA,NA,NA,NA,NA,NA,NA,NA,NA,NA,NA,NA,NA,NA,NA,NA,NA,NA,NA,NA,NA,NA,NA,NA,NA,NA,NA,NA
a170wnufjk56wd,3,1,-2996,NA,threat,1,NA,NA,NA,NA,NA,NA,NA,NA,NA,NA,NA,NA,NA,NA,NA,NA,NA,NA,NA,NA,NA,NA,NA,NA,NA,NA,NA,NA,NA,NA,NA,NA,NA,NA,NA,NA,NA,NA,NA,NA,NA,NA,NA,NA,NA,NA,NA,NA,NA,NA,NA,NA
a170wnufjk56wd,3,1,-2996,NA,threat,1,NA,NA,NA,NA,NA,NA,NA,NA,NA,NA,NA,NA,NA,NA,NA,NA,NA,NA,NA,NA,NA,NA,NA,NA,NA,NA,NA,NA,NA,NA,NA,NA,NA,NA,NA,NA,NA,NA,NA,NA,NA,NA,NA,NA,NA,NA,NA,NA,NA,NA,NA,NA
a170wnufjk56wd,3,1,-2996,NA,threat,1,NA,NA,NA,NA,NA,NA,NA,NA,NA,NA,NA,NA,NA,NA,NA,NA,NA,NA,NA,NA,NA,NA,NA,NA,NA,NA,NA,NA,NA,NA,NA,NA,NA,NA,NA,NA,NA,NA,NA,NA,NA,NA,NA,NA,NA,NA,NA,NA,NA,NA,NA,NA
a170wnufjk56wd,3,1,-2996,NA,neutral,1,NA,NA,NA,NA,NA,NA,NA,NA,NA,NA,NA,NA,NA,NA,NA,NA,NA,NA,NA,NA,NA,NA,NA,NA,NA,NA,NA,NA,NA,NA,NA,NA,NA,NA,NA,NA,NA,NA,NA,NA,NA,NA,NA,NA,NA,NA,NA,NA,NA,NA,NA,NA
a170wnufjk56wd,3,1,-2996,NA,threat,1,NA,NA,NA,NA,NA,NA,NA,NA,NA,NA,NA,NA,NA,NA,NA,NA,NA,NA,NA,NA,NA,NA,NA,NA,NA,NA,NA,NA,NA,NA,NA,NA,NA,NA,NA,NA,NA,NA,NA,NA,NA,NA,NA,NA,NA,NA,NA,NA,NA,NA,NA,NA
a170wnufjk56wd,3,1,-2996,NA,neutral,1,NA,NA,NA,NA,NA,NA,NA,NA,NA,NA,NA,NA,NA,NA,NA,NA,NA,NA,NA,NA,NA,NA,NA,NA,NA,NA,NA,NA,NA,NA,NA,NA,NA,NA,NA,NA,NA,NA,NA,NA,NA,NA,NA,NA,NA,NA,NA,NA,NA,NA,NA,NA
a170wnufjk56wd,3,1,35257,10,NA,NA,NA,NA,1,threat,threat,picture3.jpg,picture3.jpg,1,threat,threat,picture2.jpg,picture2.jpg,1,neutral,neutral,picture5.jpg,picture5.jpg,1,neutral,neutral,picture1.jpg,picture1.jpg,1,neutral,neutral,picture10.jpg,picture10.jpg,1,neutral,neutral,picture7.jpg,picture7.jpg,1,threat,threat,picture4.jpg,picture4.jpg,1,neutral,neutral,picture6.jpg,picture6.jpg,1,neutral,neutral,picture9.jpg,picture9.jpg,1,threat,threat,picture1.jpg,picture1.jpg
a170wnufjk56wd,4,1,-2063,NA,neutral,1,NA,NA,NA,NA,NA,NA,NA,NA,NA,NA,NA,NA,NA,NA,NA,NA,NA,NA,NA,NA,NA,NA,NA,NA,NA,NA,NA,NA,NA,NA,NA,NA,NA,NA,NA,NA,NA,NA,NA,NA,NA,NA,NA,NA,NA,NA,NA,NA,NA,NA,NA,NA
a170wnufjk56wd,4,1,-2063,NA,neutral,1,NA,NA,NA,NA,NA,NA,NA,NA,NA,NA,NA,NA,NA,NA,NA,NA,NA,NA,NA,NA,NA,NA,NA,NA,NA,NA,NA,NA,NA,NA,NA,NA,NA,NA,NA,NA,NA,NA,NA,NA,NA,NA,NA,NA,NA,NA,NA,NA,NA,NA,NA,NA
a170wnufjk56wd,4,1,-2063,NA,neutral,1,NA,NA,NA,NA,NA,NA,NA,NA,NA,NA,NA,NA,NA,NA,NA,NA,NA,NA,NA,NA,NA,NA,NA,NA,NA,NA,NA,NA,NA,NA,NA,NA,NA,NA,NA,NA,NA,NA,NA,NA,NA,NA,NA,NA,NA,NA,NA,NA,NA,NA,NA,NA
a170wnufjk56wd,4,1,-2063,NA,threat,1,NA,NA,NA,NA,NA,NA,NA,NA,NA,NA,NA,NA,NA,NA,NA,NA,NA,NA,NA,NA,NA,NA,NA,NA,NA,NA,NA,NA,NA,NA,NA,NA,NA,NA,NA,NA,NA,NA,NA,NA,NA,NA,NA,NA,NA,NA,NA,NA,NA,NA,NA,NA
a170wnufjk56wd,4,1,-2063,NA,neutral,1,NA,NA,NA,NA,NA,NA,NA,NA,NA,NA,NA,NA,NA,NA,NA,NA,NA,NA,NA,NA,NA,NA,NA,NA,NA,NA,NA,NA,NA,NA,NA,NA,NA,NA,NA,NA,NA,NA,NA,NA,NA,NA,NA,NA,NA,NA,NA,NA,NA,NA,NA,NA
a170wnufjk56wd,4,1,-2063,NA,threat,1,NA,NA,NA,NA,NA,NA,NA,NA,NA,NA,NA,NA,NA,NA,NA,NA,NA,NA,NA,NA,NA,NA,NA,NA,NA,NA,NA,NA,NA,NA,NA,NA,NA,NA,NA,NA,NA,NA,NA,NA,NA,NA,NA,NA,NA,NA,NA,NA,NA,NA,NA,NA
a170wnufjk56wd,4,1,-2063,NA,threat,1,NA,NA,NA,NA,NA,NA,NA,NA,NA,NA,NA,NA,NA,NA,NA,NA,NA,NA,NA,NA,NA,NA,NA,NA,NA,NA,NA,NA,NA,NA,NA,NA,NA,NA,NA,NA,NA,NA,NA,NA,NA,NA,NA,NA,NA,NA,NA,NA,NA,NA,NA,NA
a170wnufjk56wd,4,1,-2063,NA,neutral,1,NA,NA,NA,NA,NA,NA,NA,NA,NA,NA,NA,NA,NA,NA,NA,NA,NA,NA,NA,NA,NA,NA,NA,NA,NA,NA,NA,NA,NA,NA,NA,NA,NA,NA,NA,NA,NA,NA,NA,NA,NA,NA,NA,NA,NA,NA,NA,NA,NA,NA,NA,NA
a170wnufjk56wd,4,1,-2063,NA,threat,1,NA,NA,NA,NA,NA,NA,NA,NA,NA,NA,NA,NA,NA,NA,NA,NA,NA,NA,NA,NA,NA,NA,NA,NA,NA,NA,NA,NA,NA,NA,NA,NA,NA,NA,NA,NA,NA,NA,NA,NA,NA,NA,NA,NA,NA,NA,NA,NA,NA,NA,NA,NA
a170wnufjk56wd,4,1,-2063,NA,neutral,1,NA,NA,NA,NA,NA,NA,NA,NA,NA,NA,NA,NA,NA,NA,NA,NA,NA,NA,NA,NA,NA,NA,NA,NA,NA,NA,NA,NA,NA,NA,NA,NA,NA,NA,NA,NA,NA,NA,NA,NA,NA,NA,NA,NA,NA,NA,NA,NA,NA,NA,NA,NA
a170wnufjk56wd,4,1,36346,10,NA,NA,NA,NA,1,threat,threat,picture3.jpg,picture3.jpg,1,threat,threat,picture2.jpg,picture2.jpg,1,neutral,neutral,picture5.jpg,picture5.jpg,1,neutral,neutral,picture1.jpg,picture1.jpg,1,neutral,neutral,picture10.jpg,picture10.jpg,1,neutral,neutral,picture7.jpg,picture7.jpg,1,threat,threat,picture4.jpg,picture4.jpg,1,neutral,neutral,picture6.jpg,picture6.jpg,1,neutral,neutral,picture9.jpg,picture9.jpg,1,threat,threat,picture1.jpg,picture1.jpg
a3my6t1kdlazvp,1,1,NA,NA,neutral,0,NA,NA,NA,NA,NA,NA,NA,NA,NA,NA,NA,NA,NA,NA,NA,NA,NA,NA,NA,NA,NA,NA,NA,NA,NA,NA,NA,NA,NA,NA,NA,NA,NA,NA,NA,NA,NA,NA,NA,NA,NA,NA,NA,NA,NA,NA,NA,NA,NA,NA,NA,NA
a3my6t1kdlazvp,1,1,NA,NA,threat,0,NA,NA,NA,NA,NA,NA,NA,NA,NA,NA,NA,NA,NA,NA,NA,NA,NA,NA,NA,NA,NA,NA,NA,NA,NA,NA,NA,NA,NA,NA,NA,NA,NA,NA,NA,NA,NA,NA,NA,NA,NA,NA,NA,NA,NA,NA,NA,NA,NA,NA,NA,NA
a3my6t1kdlazvp,1,1,NA,NA,neutral,1,NA,NA,NA,NA,NA,NA,NA,NA,NA,NA,NA,NA,NA,NA,NA,NA,NA,NA,NA,NA,NA,NA,NA,NA,NA,NA,NA,NA,NA,NA,NA,NA,NA,NA,NA,NA,NA,NA,NA,NA,NA,NA,NA,NA,NA,NA,NA,NA,NA,NA,NA,NA
a3my6t1kdlazvp,1,1,NA,NA,threat,1,NA,NA,NA,NA,NA,NA,NA,NA,NA,NA,NA,NA,NA,NA,NA,NA,NA,NA,NA,NA,NA,NA,NA,NA,NA,NA,NA,NA,NA,NA,NA,NA,NA,NA,NA,NA,NA,NA,NA,NA,NA,NA,NA,NA,NA,NA,NA,NA,NA,NA,NA,NA
a3my6t1kdlazvp,1,1,NA,NA,neutral,0,NA,NA,NA,NA,NA,NA,NA,NA,NA,NA,NA,NA,NA,NA,NA,NA,NA,NA,NA,NA,NA,NA,NA,NA,NA,NA,NA,NA,NA,NA,NA,NA,NA,NA,NA,NA,NA,NA,NA,NA,NA,NA,NA,NA,NA,NA,NA,NA,NA,NA,NA,NA
a3my6t1kdlazvp,1,1,NA,NA,neutral,0,NA,NA,NA,NA,NA,NA,NA,NA,NA,NA,NA,NA,NA,NA,NA,NA,NA,NA,NA,NA,NA,NA,NA,NA,NA,NA,NA,NA,NA,NA,NA,NA,NA,NA,NA,NA,NA,NA,NA,NA,NA,NA,NA,NA,NA,NA,NA,NA,NA,NA,NA,NA
a3my6t1kdlazvp,1,1,NA,NA,neutral,0,NA,NA,NA,NA,NA,NA,NA,NA,NA,NA,NA,NA,NA,NA,NA,NA,NA,NA,NA,NA,NA,NA,NA,NA,NA,NA,NA,NA,NA,NA,NA,NA,NA,NA,NA,NA,NA,NA,NA,NA,NA,NA,NA,NA,NA,NA,NA,NA,NA,NA,NA,NA
a3my6t1kdlazvp,1,1,NA,NA,neutral,1,NA,NA,NA,NA,NA,NA,NA,NA,NA,NA,NA,NA,NA,NA,NA,NA,NA,NA,NA,NA,NA,NA,NA,NA,NA,NA,NA,NA,NA,NA,NA,NA,NA,NA,NA,NA,NA,NA,NA,NA,NA,NA,NA,NA,NA,NA,NA,NA,NA,NA,NA,NA
a3my6t1kdlazvp,1,1,NA,NA,threat,0,NA,NA,NA,NA,NA,NA,NA,NA,NA,NA,NA,NA,NA,NA,NA,NA,NA,NA,NA,NA,NA,NA,NA,NA,NA,NA,NA,NA,NA,NA,NA,NA,NA,NA,NA,NA,NA,NA,NA,NA,NA,NA,NA,NA,NA,NA,NA,NA,NA,NA,NA,NA
a3my6t1kdlazvp,1,1,NA,NA,threat,0,NA,NA,NA,NA,NA,NA,NA,NA,NA,NA,NA,NA,NA,NA,NA,NA,NA,NA,NA,NA,NA,NA,NA,NA,NA,NA,NA,NA,NA,NA,NA,NA,NA,NA,NA,NA,NA,NA,NA,NA,NA,NA,NA,NA,NA,NA,NA,NA,NA,NA,NA,NA
a3my6t1kdlazvp,1,1,57243,3,NA,NA,NA,NA,1,threat,threat,picture2.jpg,picture2.jpg,1,neutral,neutral,picture10.jpg,picture10.jpg,0,threat,neutral,picture1.jpg,picture7.jpg,0,neutral,threat,picture1.jpg,picture3.jpg,0,neutral,neutral,picture7.jpg,picture9.jpg,1,neutral,neutral,picture8.jpg,picture8.jpg,0,neutral,neutral,picture9.jpg,picture2.jpg,0,threat,neutral,picture4.jpg,picture1.jpg,0,threat,threat,picture3.jpg,picture1.jpg,0,neutral,threat,picture2.jpg,picture4.jpg
a3my6t1kdlazvp,1,2,57243,NA,neutral,1,neutral,0,NA,NA,NA,NA,NA,NA,NA,NA,NA,NA,NA,NA,NA,NA,NA,NA,NA,NA,NA,NA,NA,NA,NA,NA,NA,NA,NA,NA,NA,NA,NA,NA,NA,NA,NA,NA,NA,NA,NA,NA,NA,NA,NA,NA,NA,NA,NA,NA,NA,NA
a3my6t1kdlazvp,1,2,65596,4,NA,NA,NA,NA,1,threat,threat,picture2.jpg,picture2.jpg,1,neutral,neutral,picture10.jpg,picture10.jpg,0,threat,neutral,picture1.jpg,picture7.jpg,0,neutral,threat,picture1.jpg,picture3.jpg,1,neutral,neutral,picture9.jpg,picture9.jpg,1,neutral,neutral,picture8.jpg,picture8.jpg,0,neutral,neutral,picture7.jpg,picture2.jpg,0,threat,neutral,picture4.jpg,picture1.jpg,0,threat,threat,picture3.jpg,picture1.jpg,0,neutral,threat,picture2.jpg,picture4.jpg
a3my6t1kdlazvp,1,3,65596,NA,threat,0,neutral,0,NA,NA,NA,NA,NA,NA,NA,NA,NA,NA,NA,NA,NA,NA,NA,NA,NA,NA,NA,NA,NA,NA,NA,NA,NA,NA,NA,NA,NA,NA,NA,NA,NA,NA,NA,NA,NA,NA,NA,NA,NA,NA,NA,NA,NA,NA,NA,NA,NA,NA
a3my6t1kdlazvp,1,3,73064,4,NA,NA,NA,NA,1,threat,threat,picture2.jpg,picture2.jpg,1,neutral,neutral,picture10.jpg,picture10.jpg,0,threat,neutral,picture1.jpg,picture7.jpg,0,neutral,threat,picture1.jpg,picture3.jpg,1,neutral,neutral,picture9.jpg,picture9.jpg,1,neutral,neutral,picture8.jpg,picture8.jpg,0,threat,neutral,picture4.jpg,picture2.jpg,0,neutral,neutral,picture7.jpg,picture1.jpg,0,threat,threat,picture3.jpg,picture1.jpg,0,neutral,threat,picture2.jpg,picture4.jpg
a3my6t1kdlazvp,1,4,73064,NA,neutral,0,neutral,0,NA,NA,NA,NA,NA,NA,NA,NA,NA,NA,NA,NA,NA,NA,NA,NA,NA,NA,NA,NA,NA,NA,NA,NA,NA,NA,NA,NA,NA,NA,NA,NA,NA,NA,NA,NA,NA,NA,NA,NA,NA,NA,NA,NA,NA,NA,NA,NA,NA,NA
a3my6t1kdlazvp,1,4,79115,4,NA,NA,NA,NA,1,threat,threat,picture2.jpg,picture2.jpg,1,neutral,neutral,picture10.jpg,picture10.jpg,0,threat,neutral,picture1.jpg,picture7.jpg,0,neutral,threat,picture2.jpg,picture3.jpg,1,neutral,neutral,picture9.jpg,picture9.jpg,1,neutral,neutral,picture8.jpg,picture8.jpg,0,threat,neutral,picture4.jpg,picture2.jpg,0,neutral,neutral,picture7.jpg,picture1.jpg,0,threat,threat,picture3.jpg,picture1.jpg,0,neutral,threat,picture1.jpg,picture4.jpg
a3my6t1kdlazvp,1,5,79115,NA,threat,0,threat,1,NA,NA,NA,NA,NA,NA,NA,NA,NA,NA,NA,NA,NA,NA,NA,NA,NA,NA,NA,NA,NA,NA,NA,NA,NA,NA,NA,NA,NA,NA,NA,NA,NA,NA,NA,NA,NA,NA,NA,NA,NA,NA,NA,NA,NA,NA,NA,NA,NA,NA
a3my6t1kdlazvp,1,5,83993,5,NA,NA,NA,NA,1,threat,threat,picture2.jpg,picture2.jpg,1,neutral,neutral,picture10.jpg,picture10.jpg,0,threat,neutral,picture3.jpg,picture7.jpg,0,neutral,threat,picture2.jpg,picture3.jpg,1,neutral,neutral,picture9.jpg,picture9.jpg,1,neutral,neutral,picture8.jpg,picture8.jpg,0,threat,neutral,picture4.jpg,picture2.jpg,0,neutral,neutral,picture7.jpg,picture1.jpg,1,threat,threat,picture1.jpg,picture1.jpg,0,neutral,threat,picture1.jpg,picture4.jpg
a3my6t1kdlazvp,1,6,83993,NA,neutral,0,threat,0,NA,NA,NA,NA,NA,NA,NA,NA,NA,NA,NA,NA,NA,NA,NA,NA,NA,NA,NA,NA,NA,NA,NA,NA,NA,NA,NA,NA,NA,NA,NA,NA,NA,NA,NA,NA,NA,NA,NA,NA,NA,NA,NA,NA,NA,NA,NA,NA,NA,NA
a3my6t1kdlazvp,1,6,91258,5,NA,NA,NA,NA,1,threat,threat,picture2.jpg,picture2.jpg,1,neutral,neutral,picture10.jpg,picture10.jpg,0,threat,neutral,picture3.jpg,picture7.jpg,0,neutral,threat,picture2.jpg,picture3.jpg,1,neutral,neutral,picture9.jpg,picture9.jpg,1,neutral,neutral,picture8.jpg,picture8.jpg,0,neutral,neutral,picture7.jpg,picture2.jpg,0,threat,neutral,picture4.jpg,picture1.jpg,1,threat,threat,picture1.jpg,picture1.jpg,0,neutral,threat,picture1.jpg,picture4.jpg
a3my6t1kdlazvp,1,7,91258,NA,neutral,0,threat,1,NA,NA,NA,NA,NA,NA,NA,NA,NA,NA,NA,NA,NA,NA,NA,NA,NA,NA,NA,NA,NA,NA,NA,NA,NA,NA,NA,NA,NA,NA,NA,NA,NA,NA,NA,NA,NA,NA,NA,NA,NA,NA,NA,NA,NA,NA,NA,NA,NA,NA
a3my6t1kdlazvp,1,7,98224,6,NA,NA,NA,NA,1,threat,threat,picture2.jpg,picture2.jpg,1,neutral,neutral,picture10.jpg,picture10.jpg,0,neutral,neutral,picture2.jpg,picture7.jpg,1,threat,threat,picture3.jpg,picture3.jpg,1,neutral,neutral,picture9.jpg,picture9.jpg,1,neutral,neutral,picture8.jpg,picture8.jpg,0,neutral,neutral,picture7.jpg,picture2.jpg,0,threat,neutral,picture4.jpg,picture1.jpg,1,threat,threat,picture1.jpg,picture1.jpg,0,neutral,threat,picture1.jpg,picture4.jpg
a3my6t1kdlazvp,1,8,98224,NA,neutral,0,neutral,0,NA,NA,NA,NA,NA,NA,NA,NA,NA,NA,NA,NA,NA,NA,NA,NA,NA,NA,NA,NA,NA,NA,NA,NA,NA,NA,NA,NA,NA,NA,NA,NA,NA,NA,NA,NA,NA,NA,NA,NA,NA,NA,NA,NA,NA,NA,NA,NA,NA,NA
a3my6t1kdlazvp,1,8,98224,NA,neutral,0,neutral,1,NA,NA,NA,NA,NA,NA,NA,NA,NA,NA,NA,NA,NA,NA,NA,NA,NA,NA,NA,NA,NA,NA,NA,NA,NA,NA,NA,NA,NA,NA,NA,NA,NA,NA,NA,NA,NA,NA,NA,NA,NA,NA,NA,NA,NA,NA,NA,NA,NA,NA
a3my6t1kdlazvp,1,8,104933,7,NA,NA,NA,NA,1,threat,threat,picture2.jpg,picture2.jpg,1,neutral,neutral,picture10.jpg,picture10.jpg,1,neutral,neutral,picture7.jpg,picture7.jpg,1,threat,threat,picture3.jpg,picture3.jpg,1,neutral,neutral,picture9.jpg,picture9.jpg,1,neutral,neutral,picture8.jpg,picture8.jpg,0,neutral,neutral,picture1.jpg,picture2.jpg,0,threat,neutral,picture4.jpg,picture1.jpg,1,threat,threat,picture1.jpg,picture1.jpg,0,neutral,threat,picture2.jpg,picture4.jpg
a3my6t1kdlazvp,1,9,104933,NA,threat,0,neutral,1,NA,NA,NA,NA,NA,NA,NA,NA,NA,NA,NA,NA,NA,NA,NA,NA,NA,NA,NA,NA,NA,NA,NA,NA,NA,NA,NA,NA,NA,NA,NA,NA,NA,NA,NA,NA,NA,NA,NA,NA,NA,NA,NA,NA,NA,NA,NA,NA,NA,NA
a3my6t1kdlazvp,1,9,113687,8,NA,NA,NA,NA,1,threat,threat,picture2.jpg,picture2.jpg,1,neutral,neutral,picture10.jpg,picture10.jpg,1,neutral,neutral,picture7.jpg,picture7.jpg,1,threat,threat,picture3.jpg,picture3.jpg,1,neutral,neutral,picture9.jpg,picture9.jpg,1,neutral,neutral,picture8.jpg,picture8.jpg,0,threat,neutral,picture4.jpg,picture2.jpg,1,neutral,neutral,picture1.jpg,picture1.jpg,1,threat,threat,picture1.jpg,picture1.jpg,0,neutral,threat,picture2.jpg,picture4.jpg
a3my6t1kdlazvp,1,10,113687,NA,neutral,1,threat,1,NA,NA,NA,NA,NA,NA,NA,NA,NA,NA,NA,NA,NA,NA,NA,NA,NA,NA,NA,NA,NA,NA,NA,NA,NA,NA,NA,NA,NA,NA,NA,NA,NA,NA,NA,NA,NA,NA,NA,NA,NA,NA,NA,NA,NA,NA,NA,NA,NA,NA
a3my6t1kdlazvp,1,10,118458,10,NA,NA,NA,NA,1,threat,threat,picture2.jpg,picture2.jpg,1,neutral,neutral,picture10.jpg,picture10.jpg,1,neutral,neutral,picture7.jpg,picture7.jpg,1,threat,threat,picture3.jpg,picture3.jpg,1,neutral,neutral,picture9.jpg,picture9.jpg,1,neutral,neutral,picture8.jpg,picture8.jpg,1,neutral,neutral,picture2.jpg,picture2.jpg,1,neutral,neutral,picture1.jpg,picture1.jpg,1,threat,threat,picture1.jpg,picture1.jpg,1,threat,threat,picture4.jpg,picture4.jpg
a3my6t1kdlazvp,2,1,-69845,NA,neutral,1,NA,NA,NA,NA,NA,NA,NA,NA,NA,NA,NA,NA,NA,NA,NA,NA,NA,NA,NA,NA,NA,NA,NA,NA,NA,NA,NA,NA,NA,NA,NA,NA,NA,NA,NA,NA,NA,NA,NA,NA,NA,NA,NA,NA,NA,NA,NA,NA,NA,NA,NA,NA
a3my6t1kdlazvp,2,1,-69845,NA,threat,1,NA,NA,NA,NA,NA,NA,NA,NA,NA,NA,NA,NA,NA,NA,NA,NA,NA,NA,NA,NA,NA,NA,NA,NA,NA,NA,NA,NA,NA,NA,NA,NA,NA,NA,NA,NA,NA,NA,NA,NA,NA,NA,NA,NA,NA,NA,NA,NA,NA,NA,NA,NA
a3my6t1kdlazvp,2,1,-69845,NA,neutral,1,NA,NA,NA,NA,NA,NA,NA,NA,NA,NA,NA,NA,NA,NA,NA,NA,NA,NA,NA,NA,NA,NA,NA,NA,NA,NA,NA,NA,NA,NA,NA,NA,NA,NA,NA,NA,NA,NA,NA,NA,NA,NA,NA,NA,NA,NA,NA,NA,NA,NA,NA,NA
a3my6t1kdlazvp,2,1,-69845,NA,neutral,1,NA,NA,NA,NA,NA,NA,NA,NA,NA,NA,NA,NA,NA,NA,NA,NA,NA,NA,NA,NA,NA,NA,NA,NA,NA,NA,NA,NA,NA,NA,NA,NA,NA,NA,NA,NA,NA,NA,NA,NA,NA,NA,NA,NA,NA,NA,NA,NA,NA,NA,NA,NA
a3my6t1kdlazvp,2,1,-69845,NA,neutral,1,NA,NA,NA,NA,NA,NA,NA,NA,NA,NA,NA,NA,NA,NA,NA,NA,NA,NA,NA,NA,NA,NA,NA,NA,NA,NA,NA,NA,NA,NA,NA,NA,NA,NA,NA,NA,NA,NA,NA,NA,NA,NA,NA,NA,NA,NA,NA,NA,NA,NA,NA,NA
a3my6t1kdlazvp,2,1,-69845,NA,threat,1,NA,NA,NA,NA,NA,NA,NA,NA,NA,NA,NA,NA,NA,NA,NA,NA,NA,NA,NA,NA,NA,NA,NA,NA,NA,NA,NA,NA,NA,NA,NA,NA,NA,NA,NA,NA,NA,NA,NA,NA,NA,NA,NA,NA,NA,NA,NA,NA,NA,NA,NA,NA
a3my6t1kdlazvp,2,1,-69845,NA,neutral,1,NA,NA,NA,NA,NA,NA,NA,NA,NA,NA,NA,NA,NA,NA,NA,NA,NA,NA,NA,NA,NA,NA,NA,NA,NA,NA,NA,NA,NA,NA,NA,NA,NA,NA,NA,NA,NA,NA,NA,NA,NA,NA,NA,NA,NA,NA,NA,NA,NA,NA,NA,NA
a3my6t1kdlazvp,2,1,-69845,NA,neutral,1,NA,NA,NA,NA,NA,NA,NA,NA,NA,NA,NA,NA,NA,NA,NA,NA,NA,NA,NA,NA,NA,NA,NA,NA,NA,NA,NA,NA,NA,NA,NA,NA,NA,NA,NA,NA,NA,NA,NA,NA,NA,NA,NA,NA,NA,NA,NA,NA,NA,NA,NA,NA
a3my6t1kdlazvp,2,1,-69845,NA,threat,1,NA,NA,NA,NA,NA,NA,NA,NA,NA,NA,NA,NA,NA,NA,NA,NA,NA,NA,NA,NA,NA,NA,NA,NA,NA,NA,NA,NA,NA,NA,NA,NA,NA,NA,NA,NA,NA,NA,NA,NA,NA,NA,NA,NA,NA,NA,NA,NA,NA,NA,NA,NA
a3my6t1kdlazvp,2,1,-69845,NA,threat,1,NA,NA,NA,NA,NA,NA,NA,NA,NA,NA,NA,NA,NA,NA,NA,NA,NA,NA,NA,NA,NA,NA,NA,NA,NA,NA,NA,NA,NA,NA,NA,NA,NA,NA,NA,NA,NA,NA,NA,NA,NA,NA,NA,NA,NA,NA,NA,NA,NA,NA,NA,NA
a3my6t1kdlazvp,2,1,52491,10,NA,NA,NA,NA,1,threat,threat,picture2.jpg,picture2.jpg,1,neutral,neutral,picture10.jpg,picture10.jpg,1,neutral,neutral,picture7.jpg,picture7.jpg,1,threat,threat,picture3.jpg,picture3.jpg,1,neutral,neutral,picture9.jpg,picture9.jpg,1,neutral,neutral,picture8.jpg,picture8.jpg,1,neutral,neutral,picture2.jpg,picture2.jpg,1,neutral,neutral,picture1.jpg,picture1.jpg,1,threat,threat,picture1.jpg,picture1.jpg,1,threat,threat,picture4.jpg,picture4.jpg
a3my6t1kdlazvp,3,1,-49615,NA,neutral,1,NA,NA,NA,NA,NA,NA,NA,NA,NA,NA,NA,NA,NA,NA,NA,NA,NA,NA,NA,NA,NA,NA,NA,NA,NA,NA,NA,NA,NA,NA,NA,NA,NA,NA,NA,NA,NA,NA,NA,NA,NA,NA,NA,NA,NA,NA,NA,NA,NA,NA,NA,NA
a3my6t1kdlazvp,3,1,-49615,NA,neutral,1,NA,NA,NA,NA,NA,NA,NA,NA,NA,NA,NA,NA,NA,NA,NA,NA,NA,NA,NA,NA,NA,NA,NA,NA,NA,NA,NA,NA,NA,NA,NA,NA,NA,NA,NA,NA,NA,NA,NA,NA,NA,NA,NA,NA,NA,NA,NA,NA,NA,NA,NA,NA
a3my6t1kdlazvp,3,1,-49615,NA,threat,1,NA,NA,NA,NA,NA,NA,NA,NA,NA,NA,NA,NA,NA,NA,NA,NA,NA,NA,NA,NA,NA,NA,NA,NA,NA,NA,NA,NA,NA,NA,NA,NA,NA,NA,NA,NA,NA,NA,NA,NA,NA,NA,NA,NA,NA,NA,NA,NA,NA,NA,NA,NA
a3my6t1kdlazvp,3,1,-49615,NA,neutral,1,NA,NA,NA,NA,NA,NA,NA,NA,NA,NA,NA,NA,NA,NA,NA,NA,NA,NA,NA,NA,NA,NA,NA,NA,NA,NA,NA,NA,NA,NA,NA,NA,NA,NA,NA,NA,NA,NA,NA,NA,NA,NA,NA,NA,NA,NA,NA,NA,NA,NA,NA,NA
a3my6t1kdlazvp,3,1,-49615,NA,neutral,1,NA,NA,NA,NA,NA,NA,NA,NA,NA,NA,NA,NA,NA,NA,NA,NA,NA,NA,NA,NA,NA,NA,NA,NA,NA,NA,NA,NA,NA,NA,NA,NA,NA,NA,NA,NA,NA,NA,NA,NA,NA,NA,NA,NA,NA,NA,NA,NA,NA,NA,NA,NA
a3my6t1kdlazvp,3,1,-49615,NA,threat,1,NA,NA,NA,NA,NA,NA,NA,NA,NA,NA,NA,NA,NA,NA,NA,NA,NA,NA,NA,NA,NA,NA,NA,NA,NA,NA,NA,NA,NA,NA,NA,NA,NA,NA,NA,NA,NA,NA,NA,NA,NA,NA,NA,NA,NA,NA,NA,NA,NA,NA,NA,NA
a3my6t1kdlazvp,3,1,-49615,NA,neutral,1,NA,NA,NA,NA,NA,NA,NA,NA,NA,NA,NA,NA,NA,NA,NA,NA,NA,NA,NA,NA,NA,NA,NA,NA,NA,NA,NA,NA,NA,NA,NA,NA,NA,NA,NA,NA,NA,NA,NA,NA,NA,NA,NA,NA,NA,NA,NA,NA,NA,NA,NA,NA
a3my6t1kdlazvp,3,1,-49615,NA,neutral,1,NA,NA,NA,NA,NA,NA,NA,NA,NA,NA,NA,NA,NA,NA,NA,NA,NA,NA,NA,NA,NA,NA,NA,NA,NA,NA,NA,NA,NA,NA,NA,NA,NA,NA,NA,NA,NA,NA,NA,NA,NA,NA,NA,NA,NA,NA,NA,NA,NA,NA,NA,NA
a3my6t1kdlazvp,3,1,-49615,NA,threat,1,NA,NA,NA,NA,NA,NA,NA,NA,NA,NA,NA,NA,NA,NA,NA,NA,NA,NA,NA,NA,NA,NA,NA,NA,NA,NA,NA,NA,NA,NA,NA,NA,NA,NA,NA,NA,NA,NA,NA,NA,NA,NA,NA,NA,NA,NA,NA,NA,NA,NA,NA,NA
a3my6t1kdlazvp,3,1,-49615,NA,threat,1,NA,NA,NA,NA,NA,NA,NA,NA,NA,NA,NA,NA,NA,NA,NA,NA,NA,NA,NA,NA,NA,NA,NA,NA,NA,NA,NA,NA,NA,NA,NA,NA,NA,NA,NA,NA,NA,NA,NA,NA,NA,NA,NA,NA,NA,NA,NA,NA,NA,NA,NA,NA
a3my6t1kdlazvp,3,1,41559,10,NA,NA,NA,NA,1,threat,threat,picture2.jpg,picture2.jpg,1,neutral,neutral,picture10.jpg,picture10.jpg,1,neutral,neutral,picture7.jpg,picture7.jpg,1,threat,threat,picture3.jpg,picture3.jpg,1,neutral,neutral,picture9.jpg,picture9.jpg,1,neutral,neutral,picture8.jpg,picture8.jpg,1,neutral,neutral,picture2.jpg,picture2.jpg,1,neutral,neutral,picture1.jpg,picture1.jpg,1,threat,threat,picture1.jpg,picture1.jpg,1,threat,threat,picture4.jpg,picture4.jpg
a3my6t1kdlazvp,4,1,-16080,NA,neutral,1,NA,NA,NA,NA,NA,NA,NA,NA,NA,NA,NA,NA,NA,NA,NA,NA,NA,NA,NA,NA,NA,NA,NA,NA,NA,NA,NA,NA,NA,NA,NA,NA,NA,NA,NA,NA,NA,NA,NA,NA,NA,NA,NA,NA,NA,NA,NA,NA,NA,NA,NA,NA
a3my6t1kdlazvp,4,1,-16080,NA,neutral,1,NA,NA,NA,NA,NA,NA,NA,NA,NA,NA,NA,NA,NA,NA,NA,NA,NA,NA,NA,NA,NA,NA,NA,NA,NA,NA,NA,NA,NA,NA,NA,NA,NA,NA,NA,NA,NA,NA,NA,NA,NA,NA,NA,NA,NA,NA,NA,NA,NA,NA,NA,NA
a3my6t1kdlazvp,4,1,-16080,NA,neutral,1,NA,NA,NA,NA,NA,NA,NA,NA,NA,NA,NA,NA,NA,NA,NA,NA,NA,NA,NA,NA,NA,NA,NA,NA,NA,NA,NA,NA,NA,NA,NA,NA,NA,NA,NA,NA,NA,NA,NA,NA,NA,NA,NA,NA,NA,NA,NA,NA,NA,NA,NA,NA
a3my6t1kdlazvp,4,1,-16080,NA,threat,1,NA,NA,NA,NA,NA,NA,NA,NA,NA,NA,NA,NA,NA,NA,NA,NA,NA,NA,NA,NA,NA,NA,NA,NA,NA,NA,NA,NA,NA,NA,NA,NA,NA,NA,NA,NA,NA,NA,NA,NA,NA,NA,NA,NA,NA,NA,NA,NA,NA,NA,NA,NA
a3my6t1kdlazvp,4,1,-16080,NA,threat,1,NA,NA,NA,NA,NA,NA,NA,NA,NA,NA,NA,NA,NA,NA,NA,NA,NA,NA,NA,NA,NA,NA,NA,NA,NA,NA,NA,NA,NA,NA,NA,NA,NA,NA,NA,NA,NA,NA,NA,NA,NA,NA,NA,NA,NA,NA,NA,NA,NA,NA,NA,NA
a3my6t1kdlazvp,4,1,-16080,NA,neutral,1,NA,NA,NA,NA,NA,NA,NA,NA,NA,NA,NA,NA,NA,NA,NA,NA,NA,NA,NA,NA,NA,NA,NA,NA,NA,NA,NA,NA,NA,NA,NA,NA,NA,NA,NA,NA,NA,NA,NA,NA,NA,NA,NA,NA,NA,NA,NA,NA,NA,NA,NA,NA
a3my6t1kdlazvp,4,1,-16080,NA,threat,1,NA,NA,NA,NA,NA,NA,NA,NA,NA,NA,NA,NA,NA,NA,NA,NA,NA,NA,NA,NA,NA,NA,NA,NA,NA,NA,NA,NA,NA,NA,NA,NA,NA,NA,NA,NA,NA,NA,NA,NA,NA,NA,NA,NA,NA,NA,NA,NA,NA,NA,NA,NA
a3my6t1kdlazvp,4,1,-16080,NA,threat,1,NA,NA,NA,NA,NA,NA,NA,NA,NA,NA,NA,NA,NA,NA,NA,NA,NA,NA,NA,NA,NA,NA,NA,NA,NA,NA,NA,NA,NA,NA,NA,NA,NA,NA,NA,NA,NA,NA,NA,NA,NA,NA,NA,NA,NA,NA,NA,NA,NA,NA,NA,NA
a3my6t1kdlazvp,4,1,-16080,NA,neutral,0,NA,NA,NA,NA,NA,NA,NA,NA,NA,NA,NA,NA,NA,NA,NA,NA,NA,NA,NA,NA,NA,NA,NA,NA,NA,NA,NA,NA,NA,NA,NA,NA,NA,NA,NA,NA,NA,NA,NA,NA,NA,NA,NA,NA,NA,NA,NA,NA,NA,NA,NA,NA
a3my6t1kdlazvp,4,1,-16080,NA,neutral,0,NA,NA,NA,NA,NA,NA,NA,NA,NA,NA,NA,NA,NA,NA,NA,NA,NA,NA,NA,NA,NA,NA,NA,NA,NA,NA,NA,NA,NA,NA,NA,NA,NA,NA,NA,NA,NA,NA,NA,NA,NA,NA,NA,NA,NA,NA,NA,NA,NA,NA,NA,NA
a3my6t1kdlazvp,4,1,-16080,NA,neutral,1,neutral,1,NA,NA,NA,NA,NA,NA,NA,NA,NA,NA,NA,NA,NA,NA,NA,NA,NA,NA,NA,NA,NA,NA,NA,NA,NA,NA,NA,NA,NA,NA,NA,NA,NA,NA,NA,NA,NA,NA,NA,NA,NA,NA,NA,NA,NA,NA,NA,NA,NA,NA
a3my6t1kdlazvp,4,1,54676,10,NA,NA,NA,NA,1,threat,threat,picture2.jpg,picture2.jpg,1,neutral,neutral,picture10.jpg,picture10.jpg,1,neutral,neutral,picture7.jpg,picture7.jpg,1,threat,threat,picture3.jpg,picture3.jpg,1,neutral,neutral,picture9.jpg,picture9.jpg,1,neutral,neutral,picture8.jpg,picture8.jpg,1,neutral,neutral,picture2.jpg,picture2.jpg,1,neutral,neutral,picture1.jpg,picture1.jpg,1,threat,threat,picture1.jpg,picture1.jpg,1,threat,threat,picture4.jpg,picture4.jpg
a3hopybwsr1twr,1,1,NA,NA,neutral,0,NA,NA,NA,NA,NA,NA,NA,NA,NA,NA,NA,NA,NA,NA,NA,NA,NA,NA,NA,NA,NA,NA,NA,NA,NA,NA,NA,NA,NA,NA,NA,NA,NA,NA,NA,NA,NA,NA,NA,NA,NA,NA,NA,NA,NA,NA,NA,NA,NA,NA,NA,NA
a3hopybwsr1twr,1,1,NA,NA,threat,0,NA,NA,NA,NA,NA,NA,NA,NA,NA,NA,NA,NA,NA,NA,NA,NA,NA,NA,NA,NA,NA,NA,NA,NA,NA,NA,NA,NA,NA,NA,NA,NA,NA,NA,NA,NA,NA,NA,NA,NA,NA,NA,NA,NA,NA,NA,NA,NA,NA,NA,NA,NA
a3hopybwsr1twr,1,1,NA,NA,threat,0,NA,NA,NA,NA,NA,NA,NA,NA,NA,NA,NA,NA,NA,NA,NA,NA,NA,NA,NA,NA,NA,NA,NA,NA,NA,NA,NA,NA,NA,NA,NA,NA,NA,NA,NA,NA,NA,NA,NA,NA,NA,NA,NA,NA,NA,NA,NA,NA,NA,NA,NA,NA
a3hopybwsr1twr,1,1,NA,NA,neutral,0,NA,NA,NA,NA,NA,NA,NA,NA,NA,NA,NA,NA,NA,NA,NA,NA,NA,NA,NA,NA,NA,NA,NA,NA,NA,NA,NA,NA,NA,NA,NA,NA,NA,NA,NA,NA,NA,NA,NA,NA,NA,NA,NA,NA,NA,NA,NA,NA,NA,NA,NA,NA
a3hopybwsr1twr,1,1,NA,NA,neutral,1,NA,NA,NA,NA,NA,NA,NA,NA,NA,NA,NA,NA,NA,NA,NA,NA,NA,NA,NA,NA,NA,NA,NA,NA,NA,NA,NA,NA,NA,NA,NA,NA,NA,NA,NA,NA,NA,NA,NA,NA,NA,NA,NA,NA,NA,NA,NA,NA,NA,NA,NA,NA
a3hopybwsr1twr,1,1,NA,NA,threat,0,NA,NA,NA,NA,NA,NA,NA,NA,NA,NA,NA,NA,NA,NA,NA,NA,NA,NA,NA,NA,NA,NA,NA,NA,NA,NA,NA,NA,NA,NA,NA,NA,NA,NA,NA,NA,NA,NA,NA,NA,NA,NA,NA,NA,NA,NA,NA,NA,NA,NA,NA,NA
a3hopybwsr1twr,1,1,NA,NA,neutral,0,NA,NA,NA,NA,NA,NA,NA,NA,NA,NA,NA,NA,NA,NA,NA,NA,NA,NA,NA,NA,NA,NA,NA,NA,NA,NA,NA,NA,NA,NA,NA,NA,NA,NA,NA,NA,NA,NA,NA,NA,NA,NA,NA,NA,NA,NA,NA,NA,NA,NA,NA,NA
a3hopybwsr1twr,1,1,NA,NA,threat,0,NA,NA,NA,NA,NA,NA,NA,NA,NA,NA,NA,NA,NA,NA,NA,NA,NA,NA,NA,NA,NA,NA,NA,NA,NA,NA,NA,NA,NA,NA,NA,NA,NA,NA,NA,NA,NA,NA,NA,NA,NA,NA,NA,NA,NA,NA,NA,NA,NA,NA,NA,NA
a3hopybwsr1twr,1,1,NA,NA,neutral,0,NA,NA,NA,NA,NA,NA,NA,NA,NA,NA,NA,NA,NA,NA,NA,NA,NA,NA,NA,NA,NA,NA,NA,NA,NA,NA,NA,NA,NA,NA,NA,NA,NA,NA,NA,NA,NA,NA,NA,NA,NA,NA,NA,NA,NA,NA,NA,NA,NA,NA,NA,NA
a3hopybwsr1twr,1,1,NA,NA,neutral,0,NA,NA,NA,NA,NA,NA,NA,NA,NA,NA,NA,NA,NA,NA,NA,NA,NA,NA,NA,NA,NA,NA,NA,NA,NA,NA,NA,NA,NA,NA,NA,NA,NA,NA,NA,NA,NA,NA,NA,NA,NA,NA,NA,NA,NA,NA,NA,NA,NA,NA,NA,NA
a3hopybwsr1twr,1,1,24502,1,NA,NA,NA,NA,0,threat,threat,picture4.jpg,picture2.jpg,0,neutral,neutral,picture7.jpg,picture3.jpg,0,neutral,threat,picture9.jpg,picture1.jpg,0,threat,neutral,picture3.jpg,picture7.jpg,1,neutral,neutral,picture6.jpg,picture6.jpg,0,threat,neutral,picture1.jpg,picture1.jpg,0,neutral,threat,picture4.jpg,picture3.jpg,0,neutral,neutral,picture1.jpg,picture9.jpg,0,neutral,threat,picture3.jpg,picture4.jpg,0,threat,neutral,picture2.jpg,picture4.jpg
a3hopybwsr1twr,1,2,24502,NA,threat,0,neutral,0,NA,NA,NA,NA,NA,NA,NA,NA,NA,NA,NA,NA,NA,NA,NA,NA,NA,NA,NA,NA,NA,NA,NA,NA,NA,NA,NA,NA,NA,NA,NA,NA,NA,NA,NA,NA,NA,NA,NA,NA,NA,NA,NA,NA,NA,NA,NA,NA,NA,NA
a3hopybwsr1twr,1,2,24502,NA,neutral,0,threat,0,NA,NA,NA,NA,NA,NA,NA,NA,NA,NA,NA,NA,NA,NA,NA,NA,NA,NA,NA,NA,NA,NA,NA,NA,NA,NA,NA,NA,NA,NA,NA,NA,NA,NA,NA,NA,NA,NA,NA,NA,NA,NA,NA,NA,NA,NA,NA,NA,NA,NA
a3hopybwsr1twr,1,2,45887,1,NA,NA,NA,NA,0,neutral,threat,picture7.jpg,picture2.jpg,0,threat,neutral,picture4.jpg,picture3.jpg,0,neutral,threat,picture9.jpg,picture1.jpg,0,threat,neutral,picture3.jpg,picture7.jpg,1,neutral,neutral,picture6.jpg,picture6.jpg,0,neutral,neutral,picture4.jpg,picture1.jpg,0,threat,threat,picture1.jpg,picture3.jpg,0,neutral,neutral,picture1.jpg,picture9.jpg,0,neutral,threat,picture3.jpg,picture4.jpg,0,threat,neutral,picture2.jpg,picture4.jpg
a3hopybwsr1twr,1,3,45887,NA,threat,0,threat,0,NA,NA,NA,NA,NA,NA,NA,NA,NA,NA,NA,NA,NA,NA,NA,NA,NA,NA,NA,NA,NA,NA,NA,NA,NA,NA,NA,NA,NA,NA,NA,NA,NA,NA,NA,NA,NA,NA,NA,NA,NA,NA,NA,NA,NA,NA,NA,NA,NA,NA
a3hopybwsr1twr,1,3,48358,1,NA,NA,NA,NA,0,neutral,threat,picture7.jpg,picture2.jpg,0,threat,neutral,picture4.jpg,picture3.jpg,0,neutral,threat,picture9.jpg,picture1.jpg,0,threat,neutral,picture3.jpg,picture7.jpg,1,neutral,neutral,picture6.jpg,picture6.jpg,0,neutral,neutral,picture4.jpg,picture1.jpg,0,threat,threat,picture2.jpg,picture3.jpg,0,neutral,neutral,picture1.jpg,picture9.jpg,0,neutral,threat,picture3.jpg,picture4.jpg,0,threat,neutral,picture1.jpg,picture4.jpg
a3hopybwsr1twr,1,4,48358,NA,threat,0,threat,0,NA,NA,NA,NA,NA,NA,NA,NA,NA,NA,NA,NA,NA,NA,NA,NA,NA,NA,NA,NA,NA,NA,NA,NA,NA,NA,NA,NA,NA,NA,NA,NA,NA,NA,NA,NA,NA,NA,NA,NA,NA,NA,NA,NA,NA,NA,NA,NA,NA,NA
a3hopybwsr1twr,1,4,167366,1,NA,NA,NA,NA,0,neutral,threat,picture7.jpg,picture2.jpg,0,threat,neutral,picture4.jpg,picture3.jpg,0,neutral,threat,picture9.jpg,picture1.jpg,0,threat,neutral,picture3.jpg,picture7.jpg,1,neutral,neutral,picture6.jpg,picture6.jpg,0,neutral,neutral,picture4.jpg,picture1.jpg,0,threat,threat,picture1.jpg,picture3.jpg,0,neutral,neutral,picture1.jpg,picture9.jpg,0,neutral,threat,picture3.jpg,picture4.jpg,0,threat,neutral,picture2.jpg,picture4.jpg
a3hopybwsr1twr,1,5,167366,NA,threat,0,neutral,0,NA,NA,NA,NA,NA,NA,NA,NA,NA,NA,NA,NA,NA,NA,NA,NA,NA,NA,NA,NA,NA,NA,NA,NA,NA,NA,NA,NA,NA,NA,NA,NA,NA,NA,NA,NA,NA,NA,NA,NA,NA,NA,NA,NA,NA,NA,NA,NA,NA,NA
a3hopybwsr1twr,1,5,169111,1,NA,NA,NA,NA,0,neutral,threat,picture7.jpg,picture2.jpg,0,threat,neutral,picture4.jpg,picture3.jpg,0,neutral,threat,picture9.jpg,picture1.jpg,0,threat,neutral,picture3.jpg,picture7.jpg,1,neutral,neutral,picture6.jpg,picture6.jpg,0,neutral,neutral,picture4.jpg,picture1.jpg,0,threat,threat,picture1.jpg,picture3.jpg,0,neutral,neutral,picture1.jpg,picture9.jpg,0,threat,threat,picture2.jpg,picture4.jpg,0,neutral,neutral,picture3.jpg,picture4.jpg
a3hopybwsr1twr,1,6,169111,NA,neutral,0,threat,0,NA,NA,NA,NA,NA,NA,NA,NA,NA,NA,NA,NA,NA,NA,NA,NA,NA,NA,NA,NA,NA,NA,NA,NA,NA,NA,NA,NA,NA,NA,NA,NA,NA,NA,NA,NA,NA,NA,NA,NA,NA,NA,NA,NA,NA,NA,NA,NA,NA,NA
a3hopybwsr1twr,1,6,172010,1,NA,NA,NA,NA,0,neutral,threat,picture7.jpg,picture2.jpg,0,threat,neutral,picture4.jpg,picture3.jpg,0,neutral,threat,picture9.jpg,picture1.jpg,0,threat,neutral,picture3.jpg,picture7.jpg,1,neutral,neutral,picture6.jpg,picture6.jpg,0,neutral,neutral,picture4.jpg,picture1.jpg,0,neutral,threat,picture1.jpg,picture3.jpg,0,threat,neutral,picture1.jpg,picture9.jpg,0,threat,threat,picture2.jpg,picture4.jpg,0,neutral,neutral,picture3.jpg,picture4.jpg
a3hopybwsr1twr,1,7,333697,1,NA,NA,NA,NA,0,neutral,threat,picture7.jpg,picture2.jpg,0,threat,neutral,picture4.jpg,picture3.jpg,0,neutral,threat,picture9.jpg,picture1.jpg,0,threat,neutral,picture3.jpg,picture7.jpg,1,neutral,neutral,picture6.jpg,picture6.jpg,0,neutral,neutral,picture4.jpg,picture1.jpg,0,neutral,threat,picture1.jpg,picture3.jpg,0,threat,neutral,picture1.jpg,picture9.jpg,0,threat,threat,picture2.jpg,picture4.jpg,0,neutral,neutral,picture3.jpg,picture4.jpg
a3hopybwsr1twr,1,8,335887,1,NA,NA,NA,NA,0,neutral,threat,picture7.jpg,picture2.jpg,0,threat,neutral,picture4.jpg,picture3.jpg,0,neutral,threat,picture9.jpg,picture1.jpg,0,threat,neutral,picture3.jpg,picture7.jpg,1,neutral,neutral,picture6.jpg,picture6.jpg,0,neutral,neutral,picture4.jpg,picture1.jpg,0,neutral,threat,picture1.jpg,picture3.jpg,0,threat,neutral,picture1.jpg,picture9.jpg,0,threat,threat,picture2.jpg,picture4.jpg,0,neutral,neutral,picture3.jpg,picture4.jpg
a3hopybwsr1twr,1,9,335887,NA,neutral,1,neutral,0,NA,NA,NA,NA,NA,NA,NA,NA,NA,NA,NA,NA,NA,NA,NA,NA,NA,NA,NA,NA,NA,NA,NA,NA,NA,NA,NA,NA,NA,NA,NA,NA,NA,NA,NA,NA,NA,NA,NA,NA,NA,NA,NA,NA,NA,NA,NA,NA,NA,NA
a3hopybwsr1twr,1,9,338048,2,NA,NA,NA,NA,0,neutral,threat,picture7.jpg,picture2.jpg,0,threat,neutral,picture4.jpg,picture3.jpg,0,neutral,threat,picture9.jpg,picture1.jpg,0,threat,neutral,picture3.jpg,picture7.jpg,1,neutral,neutral,picture6.jpg,picture6.jpg,0,neutral,neutral,picture3.jpg,picture1.jpg,0,neutral,threat,picture1.jpg,picture3.jpg,0,threat,neutral,picture1.jpg,picture9.jpg,0,threat,threat,picture2.jpg,picture4.jpg,1,neutral,neutral,picture4.jpg,picture4.jpg
a3hopybwsr1twr,1,10,338048,NA,neutral,0,threat,0,NA,NA,NA,NA,NA,NA,NA,NA,NA,NA,NA,NA,NA,NA,NA,NA,NA,NA,NA,NA,NA,NA,NA,NA,NA,NA,NA,NA,NA,NA,NA,NA,NA,NA,NA,NA,NA,NA,NA,NA,NA,NA,NA,NA,NA,NA,NA,NA,NA,NA
a3hopybwsr1twr,1,10,339887,2,NA,NA,NA,NA,0,neutral,threat,picture7.jpg,picture2.jpg,0,threat,neutral,picture4.jpg,picture3.jpg,0,neutral,threat,picture9.jpg,picture1.jpg,0,threat,neutral,picture3.jpg,picture7.jpg,1,neutral,neutral,picture6.jpg,picture6.jpg,0,neutral,neutral,picture3.jpg,picture1.jpg,0,threat,threat,picture2.jpg,picture3.jpg,0,threat,neutral,picture1.jpg,picture9.jpg,0,neutral,threat,picture1.jpg,picture4.jpg,1,neutral,neutral,picture4.jpg,picture4.jpg
a3hopybwsr1twr,1,11,339887,NA,threat,0,neutral,0,NA,NA,NA,NA,NA,NA,NA,NA,NA,NA,NA,NA,NA,NA,NA,NA,NA,NA,NA,NA,NA,NA,NA,NA,NA,NA,NA,NA,NA,NA,NA,NA,NA,NA,NA,NA,NA,NA,NA,NA,NA,NA,NA,NA,NA,NA,NA,NA,NA,NA
a3hopybwsr1twr,1,11,342120,2,NA,NA,NA,NA,0,neutral,threat,picture7.jpg,picture2.jpg,0,threat,neutral,picture4.jpg,picture3.jpg,0,neutral,threat,picture9.jpg,picture1.jpg,0,threat,neutral,picture3.jpg,picture7.jpg,1,neutral,neutral,picture6.jpg,picture6.jpg,0,threat,neutral,picture1.jpg,picture1.jpg,0,threat,threat,picture2.jpg,picture3.jpg,0,neutral,neutral,picture3.jpg,picture9.jpg,0,neutral,threat,picture1.jpg,picture4.jpg,1,neutral,neutral,picture4.jpg,picture4.jpg
a3hopybwsr1twr,1,12,342120,NA,threat,0,threat,0,NA,NA,NA,NA,NA,NA,NA,NA,NA,NA,NA,NA,NA,NA,NA,NA,NA,NA,NA,NA,NA,NA,NA,NA,NA,NA,NA,NA,NA,NA,NA,NA,NA,NA,NA,NA,NA,NA,NA,NA,NA,NA,NA,NA,NA,NA,NA,NA,NA,NA
