subject,transitionType,transitionThreatKind,trialCount,blockTrialCount,block,RT,acc,activeNodeCommunityCongruency,bondaryNodeStatus,communityTransitionStatus,missedSkipStatus,falseAlarmStatus,activeNodeThreatStatus
a2ctbahecdqsix,l,neutral-threat,1,1,1,1350,0,incongruent,i,0,1,0,threat
a2ctbahecdqsix,l,threat-threat,2,2,1,1861,0,incongruent,b,0,1,0,threat
a2ctbahecdqsix,l,threat-neutral,3,3,1,NA,1,congruent,b,1,1,1,neutral
a2ctbahecdqsix,l,neutral-threat,4,4,1,NA,1,incongruent,b,1,1,1,threat
a2ctbahecdqsix,i,threat-threat,5,5,1,NA,0,congruent,i,1,0,1,threat
a2ctbahecdqsix,l,threat-neutral,6,6,1,NA,1,congruent,i,0,1,1,neutral
a2ctbahecdqsix,i,neutral-threat,7,7,1,1136,1,incongruent,i,1,1,1,threat
a2ctbahecdqsix,l,threat-neutral,8,8,1,1539,0,incongruent,i,0,1,0,neutral
a2ctbahecdqsix,i,neutral-threat,9,9,1,1201,1,congruent,i,1,1,1,threat
a2ctbahecdqsix,l,threat-neutral,10,10,1,1779,0,congruent,i,0,1,0,neutral
a2ctbahecdqsix,l,neutral-threat,11,11,1,1396,0,congruent,i,0,1,0,threat
a2ctbahecdqsix,l,threat-neutral,12,12,1,NA,1,congruent,i,0,1,1,neutral
a2ctbahecdqsix,l,neutral-neutral,13,13,1,NA,1,congruent,b,0,1,1,neutral
a2ctbahecdqsix,l,neutral-threat,14,14,1,1563,0,congruent,i,0,1,0,threat
a2ctbahecdqsix,l,threat-threat,15,15,1,NA,1,congruent,i,0,1,1,threat
a2ctbahecdqsix,l,threat-neutral,16,16,1,638,0,congruent,i,0,1,0,neutral
a2ctbahecdqsix,i,neutral-threat,17,17,1,2326,1,incongruent,b,1,1,1,threat
a2ctbahecdqsix,l,threat-neutral,18,18,1,NA,1,incongruent,i,0,1,1,neutral
a2ctbahecdqsix,l,neutral-threat,19,19,1,180,0,incongruent,i,0,1,0,threat
a2ctbahecdqsix,l,threat-neutral,20,20,1,1630,0,incongruent,i,0,1,0,neutral
a2ctbahecdqsix,l,neutral-neutral,21,21,1,1605,0,incongruent,i,0,1,0,neutral
a2ctbahecdqsix,i,neutral-neutral,22,22,1,NA,0,congruent,i,1,0,1,neutral
a2ctbahecdqsix,l,neutral-threat,23,23,1,NA,1,congruent,i,0,1,1,threat
a2ctbahecdqsix,l,threat-threat,24,24,1,NA,1,congruent,i,0,1,1,threat
a2ctbahecdqsix,l,threat-neutral,25,25,1,359,0,congruent,i,0,1,0,neutral
a2ctbahecdqsix,l,neutral-neutral,26,26,1,NA,1,congruent,b,0,1,1,neutral
a2ctbahecdqsix,l,neutral-neutral,27,27,1,NA,1,congruent,i,0,1,1,neutral
a2ctbahecdqsix,i,neutral-threat,28,28,1,NA,0,incongruent,b,1,0,1,threat
a2ctbahecdqsix,l,threat-threat,29,29,1,1569,0,incongruent,i,0,1,0,threat
a2ctbahecdqsix,l,threat-neutral,30,30,1,NA,1,incongruent,i,0,1,1,neutral
a2ctbahecdqsix,l,neutral-threat,31,31,1,NA,1,incongruent,b,0,1,1,threat
a2ctbahecdqsix,l,threat-neutral,32,32,1,NA,1,incongruent,i,0,1,1,neutral
a2ctbahecdqsix,l,neutral-threat,33,33,1,NA,1,incongruent,b,0,1,1,threat
a2ctbahecdqsix,i,threat-neutral,34,34,1,NA,0,congruent,i,1,0,1,neutral
a2ctbahecdqsix,l,neutral-threat,35,35,1,NA,1,congruent,i,0,1,1,threat
a2ctbahecdqsix,l,threat-neutral,36,36,1,NA,1,congruent,b,0,1,1,neutral
a2ctbahecdqsix,l,neutral-neutral,37,37,1,NA,1,congruent,i,0,1,1,neutral
a2ctbahecdqsix,i,neutral-neutral,38,38,1,1329,1,incongruent,i,1,1,1,neutral
a2ctbahecdqsix,l,neutral-threat,39,39,1,NA,1,incongruent,i,0,1,1,threat
a2ctbahecdqsix,l,threat-neutral,40,40,1,NA,1,incongruent,i,0,1,1,neutral
a2ctbahecdqsix,l,neutral-neutral,41,41,1,NA,1,incongruent,i,0,1,1,neutral
a2ctbahecdqsix,l,neutral-neutral,42,42,1,NA,1,incongruent,i,0,1,1,neutral
a2ctbahecdqsix,i,neutral-threat,43,43,1,1226,1,congruent,i,1,1,1,threat
a2ctbahecdqsix,l,threat-neutral,44,44,1,NA,1,congruent,i,0,1,1,neutral
a2ctbahecdqsix,l,neutral-neutral,45,45,1,NA,1,congruent,i,0,1,1,neutral
a2ctbahecdqsix,l,neutral-threat,46,46,1,NA,1,congruent,i,0,1,1,threat
a2ctbahecdqsix,l,threat-neutral,47,47,1,NA,1,congruent,b,0,1,1,neutral
a2ctbahecdqsix,l,neutral-threat,48,48,1,NA,1,congruent,i,0,1,1,threat
a2ctbahecdqsix,i,threat-neutral,49,49,1,1291,1,incongruent,i,1,1,1,neutral
a2ctbahecdqsix,l,neutral-neutral,50,50,1,NA,1,incongruent,i,0,1,1,neutral
a2ctbahecdqsix,l,neutral-threat,51,51,1,NA,1,incongruent,b,0,1,1,threat
a2ctbahecdqsix,l,threat-neutral,52,52,1,NA,1,incongruent,i,0,1,1,neutral
a2ctbahecdqsix,l,neutral-threat,53,53,1,NA,1,incongruent,i,0,1,1,threat
a2ctbahecdqsix,i,threat-threat,54,54,1,1214,1,congruent,i,1,1,1,threat
a2ctbahecdqsix,l,threat-neutral,55,55,1,NA,1,congruent,i,0,1,1,neutral
a2ctbahecdqsix,l,neutral-neutral,56,56,1,NA,1,congruent,i,0,1,1,neutral
a2ctbahecdqsix,l,neutral-threat,57,57,1,NA,1,congruent,i,0,1,1,threat
a2ctbahecdqsix,l,threat-neutral,58,58,1,NA,1,congruent,i,0,1,1,neutral
a2ctbahecdqsix,i,neutral-neutral,59,59,1,1161,1,incongruent,i,1,1,1,neutral
a2ctbahecdqsix,l,neutral-neutral,60,60,1,NA,1,incongruent,i,0,1,1,neutral
a2ctbahecdqsix,l,neutral-threat,61,61,1,NA,1,incongruent,i,0,1,1,threat
a2ctbahecdqsix,l,threat-neutral,62,62,1,NA,1,incongruent,i,0,1,1,neutral
a2ctbahecdqsix,i,neutral-neutral,63,63,1,NA,0,congruent,b,1,0,1,neutral
a2ctbahecdqsix,l,neutral-neutral,64,64,1,NA,1,congruent,i,0,1,1,neutral
a2ctbahecdqsix,l,neutral-neutral,65,65,1,NA,1,congruent,i,0,1,1,neutral
a2ctbahecdqsix,l,neutral-neutral,66,66,1,NA,1,congruent,i,0,1,1,neutral
a2ctbahecdqsix,l,neutral-neutral,67,67,1,NA,1,congruent,i,0,1,1,neutral
a2ctbahecdqsix,l,neutral-threat,68,68,1,NA,1,congruent,i,0,1,1,threat
a2ctbahecdqsix,l,threat-neutral,69,69,1,NA,1,congruent,i,0,1,1,neutral
a2ctbahecdqsix,i,neutral-threat,70,70,1,1172,1,incongruent,i,1,1,1,threat
a2ctbahecdqsix,l,threat-neutral,71,71,1,NA,1,incongruent,i,0,1,1,neutral
a2ctbahecdqsix,l,neutral-neutral,72,72,1,NA,1,incongruent,i,0,1,1,neutral
a2ctbahecdqsix,i,neutral-threat,73,73,1,1578,1,congruent,i,1,1,1,threat
a2ctbahecdqsix,l,threat-neutral,74,74,1,NA,1,congruent,i,0,1,1,neutral
a2ctbahecdqsix,l,neutral-neutral,75,75,1,NA,1,congruent,b,0,1,1,neutral
a2ctbahecdqsix,l,neutral-threat,76,76,1,NA,1,congruent,i,0,1,1,threat
a2ctbahecdqsix,l,threat-neutral,77,77,1,NA,1,congruent,i,0,1,1,neutral
a2ctbahecdqsix,l,neutral-neutral,78,78,1,NA,1,congruent,b,0,1,1,neutral
a2ctbahecdqsix,i,neutral-threat,79,79,1,1045,1,incongruent,i,1,1,1,threat
a2ctbahecdqsix,l,threat-neutral,80,80,1,NA,1,incongruent,i,0,1,1,neutral
a2ctbahecdqsix,l,neutral-threat,81,81,1,NA,1,incongruent,b,0,1,1,threat
a2ctbahecdqsix,l,threat-neutral,82,82,1,NA,1,incongruent,i,0,1,1,neutral
a2ctbahecdqsix,l,neutral-neutral,83,83,1,NA,1,incongruent,i,0,1,1,neutral
a2ctbahecdqsix,i,neutral-neutral,84,84,1,1170,1,congruent,b,1,1,1,neutral
a2ctbahecdqsix,l,neutral-neutral,85,85,1,NA,1,congruent,i,0,1,1,neutral
a2ctbahecdqsix,l,neutral-neutral,86,86,1,NA,1,congruent,i,0,1,1,neutral
a2ctbahecdqsix,l,neutral-threat,87,87,1,NA,1,congruent,i,0,1,1,threat
a2ctbahecdqsix,l,threat-threat,88,88,1,NA,1,congruent,i,0,1,1,threat
a2ctbahecdqsix,l,threat-neutral,89,89,1,NA,1,congruent,i,0,1,1,neutral
a2ctbahecdqsix,i,neutral-neutral,90,90,1,1450,1,incongruent,i,1,1,1,neutral
a2ctbahecdqsix,l,neutral-neutral,91,91,1,NA,1,incongruent,i,0,1,1,neutral
a2ctbahecdqsix,l,neutral-threat,92,92,1,NA,1,incongruent,i,0,1,1,threat
a2ctbahecdqsix,l,threat-neutral,93,93,1,NA,1,incongruent,i,0,1,1,neutral
a2ctbahecdqsix,i,neutral-neutral,94,94,1,1185,1,congruent,i,1,1,1,neutral
a2ctbahecdqsix,l,neutral-threat,95,95,1,NA,1,congruent,i,0,1,1,threat
a2ctbahecdqsix,l,threat-threat,96,96,1,NA,1,congruent,i,0,1,1,threat
a2ctbahecdqsix,l,threat-neutral,97,97,1,NA,1,congruent,i,0,1,1,neutral
a2ctbahecdqsix,l,neutral-threat,98,98,1,NA,1,congruent,i,0,1,1,threat
a2ctbahecdqsix,l,threat-neutral,99,99,1,NA,1,congruent,i,0,1,1,neutral
a2ctbahecdqsix,i,neutral-threat,100,100,1,NA,0,incongruent,b,1,0,1,threat
a2ctbahecdqsix,l,threat-neutral,101,1,2,NA,1,incongruent,i,0,1,1,neutral
a2ctbahecdqsix,l,neutral-neutral,102,2,2,NA,1,incongruent,i,0,1,1,neutral
a2ctbahecdqsix,l,neutral-threat,103,3,2,NA,1,incongruent,i,0,1,1,threat
a2ctbahecdqsix,l,threat-neutral,104,4,2,NA,1,incongruent,i,0,1,1,neutral
a2ctbahecdqsix,i,neutral-neutral,105,5,2,1171,1,congruent,i,1,1,1,neutral
a2ctbahecdqsix,l,neutral-neutral,106,6,2,NA,1,congruent,b,0,1,1,neutral
a2ctbahecdqsix,l,neutral-neutral,107,7,2,NA,1,congruent,i,0,1,1,neutral
a2ctbahecdqsix,l,neutral-neutral,108,8,2,NA,1,congruent,i,0,1,1,neutral
a2ctbahecdqsix,l,neutral-neutral,109,9,2,NA,1,congruent,i,0,1,1,neutral
a2ctbahecdqsix,l,neutral-neutral,110,10,2,NA,1,congruent,i,0,1,1,neutral
a2ctbahecdqsix,l,neutral-neutral,111,11,2,NA,1,congruent,i,0,1,1,neutral
a2ctbahecdqsix,i,neutral-threat,112,12,2,1476,1,incongruent,b,1,1,1,threat
a2ctbahecdqsix,l,threat-threat,113,13,2,NA,1,incongruent,i,0,1,1,threat
a2ctbahecdqsix,l,threat-threat,114,14,2,NA,1,incongruent,b,0,1,1,threat
a2ctbahecdqsix,i,threat-threat,115,15,2,1347,1,congruent,i,1,1,1,threat
a2ctbahecdqsix,l,threat-neutral,116,16,2,NA,1,congruent,b,0,1,1,neutral
a2ctbahecdqsix,l,neutral-threat,117,17,2,NA,1,congruent,i,0,1,1,threat
a2ctbahecdqsix,i,threat-threat,118,18,2,1374,1,incongruent,b,1,1,1,threat
a2ctbahecdqsix,l,threat-threat,119,19,2,NA,1,incongruent,i,0,1,1,threat
a2ctbahecdqsix,l,threat-neutral,120,20,2,NA,1,incongruent,i,0,1,1,neutral
a2ctbahecdqsix,l,neutral-neutral,121,21,2,NA,1,incongruent,i,0,1,1,neutral
a2ctbahecdqsix,l,neutral-neutral,122,22,2,NA,1,incongruent,i,0,1,1,neutral
a2ctbahecdqsix,l,neutral-threat,123,23,2,NA,1,incongruent,b,0,1,1,threat
a2ctbahecdqsix,i,threat-neutral,124,24,2,1058,1,congruent,i,1,1,1,neutral
a2ctbahecdqsix,l,neutral-threat,125,25,2,NA,1,congruent,i,0,1,1,threat
a2ctbahecdqsix,l,threat-neutral,126,26,2,NA,1,congruent,i,0,1,1,neutral
a2ctbahecdqsix,l,neutral-neutral,127,27,2,NA,1,congruent,b,0,1,1,neutral
a2ctbahecdqsix,l,neutral-threat,128,28,2,NA,1,incongruent,b,1,1,1,threat
a2ctbahecdqsix,l,threat-neutral,129,29,2,NA,1,incongruent,i,0,1,1,neutral
a2ctbahecdqsix,l,neutral-neutral,130,30,2,32,0,incongruent,i,0,1,0,neutral
a2ctbahecdqsix,i,neutral-neutral,131,31,2,NA,0,congruent,i,1,0,1,neutral
a2ctbahecdqsix,l,neutral-neutral,132,32,2,NA,1,congruent,b,0,1,1,neutral
a2ctbahecdqsix,l,neutral-threat,133,33,2,NA,1,congruent,i,0,1,1,threat
a2ctbahecdqsix,l,threat-threat,134,34,2,NA,1,congruent,i,0,1,1,threat
a2ctbahecdqsix,i,threat-neutral,135,35,2,1161,1,incongruent,i,1,1,1,neutral
a2ctbahecdqsix,l,neutral-threat,136,36,2,NA,1,incongruent,b,0,1,1,threat
a2ctbahecdqsix,l,threat-neutral,137,37,2,NA,1,incongruent,i,0,1,1,neutral
a2ctbahecdqsix,l,neutral-threat,138,38,2,NA,1,incongruent,b,0,1,1,threat
a2ctbahecdqsix,l,threat-neutral,139,39,2,1377,0,congruent,b,1,1,0,neutral
a2ctbahecdqsix,l,neutral-neutral,140,40,2,NA,1,congruent,i,0,1,1,neutral
a2ctbahecdqsix,i,neutral-neutral,141,41,2,1307,1,incongruent,i,1,1,1,neutral
a2ctbahecdqsix,l,neutral-threat,142,42,2,NA,1,incongruent,b,0,1,1,threat
a2ctbahecdqsix,l,threat-neutral,143,43,2,NA,1,incongruent,i,0,1,1,neutral
a2ctbahecdqsix,l,neutral-threat,144,44,2,NA,1,incongruent,b,0,1,1,threat
a2ctbahecdqsix,i,threat-threat,145,45,2,NA,0,congruent,i,1,0,1,threat
a2ctbahecdqsix,l,threat-neutral,146,46,2,NA,1,congruent,b,0,1,1,neutral
a2ctbahecdqsix,i,neutral-neutral,147,47,2,1022,1,incongruent,i,1,1,1,neutral
a2ctbahecdqsix,l,neutral-threat,148,48,2,NA,1,incongruent,i,0,1,1,threat
a2ctbahecdqsix,l,threat-threat,149,49,2,NA,1,incongruent,b,0,1,1,threat
a2ctbahecdqsix,i,threat-neutral,150,50,2,1394,1,congruent,i,1,1,1,neutral
a2ctbahecdqsix,l,neutral-neutral,151,51,2,NA,1,congruent,b,0,1,1,neutral
a2ctbahecdqsix,l,neutral-threat,152,52,2,NA,1,incongruent,b,1,1,1,threat
a2ctbahecdqsix,l,threat-threat,153,53,2,1957,0,incongruent,i,0,1,0,threat
a2ctbahecdqsix,i,threat-neutral,154,54,2,NA,0,congruent,b,1,0,1,neutral
a2ctbahecdqsix,l,neutral-neutral,155,55,2,NA,1,congruent,i,0,1,1,neutral
a2ctbahecdqsix,l,neutral-neutral,156,56,2,NA,1,congruent,b,0,1,1,neutral
a2ctbahecdqsix,l,neutral-threat,157,57,2,NA,1,incongruent,b,1,1,1,threat
a2ctbahecdqsix,l,threat-neutral,158,58,2,1481,0,incongruent,i,0,1,0,neutral
a2ctbahecdqsix,l,neutral-threat,159,59,2,NA,1,incongruent,i,0,1,1,threat
a2ctbahecdqsix,l,threat-neutral,160,60,2,NA,1,incongruent,i,0,1,1,neutral
a2ctbahecdqsix,l,neutral-neutral,161,61,2,NA,1,incongruent,i,0,1,1,neutral
a2ctbahecdqsix,l,neutral-threat,162,62,2,NA,1,incongruent,i,0,1,1,threat
a2ctbahecdqsix,l,threat-neutral,163,63,2,NA,1,incongruent,i,0,1,1,neutral
a2ctbahecdqsix,l,neutral-neutral,164,64,2,NA,1,incongruent,i,0,1,1,neutral
a2ctbahecdqsix,l,neutral-threat,165,65,2,NA,1,incongruent,b,0,1,1,threat
a2ctbahecdqsix,i,threat-threat,166,66,2,1302,1,congruent,i,1,1,1,threat
a2ctbahecdqsix,l,threat-neutral,167,67,2,NA,1,congruent,b,0,1,1,neutral
a2ctbahecdqsix,l,neutral-threat,168,68,2,NA,1,congruent,i,0,1,1,threat
a2ctbahecdqsix,l,threat-threat,169,69,2,NA,1,congruent,i,0,1,1,threat
a2ctbahecdqsix,l,threat-threat,170,70,2,NA,1,congruent,i,0,1,1,threat
a2ctbahecdqsix,l,threat-neutral,171,71,2,NA,1,congruent,b,0,1,1,neutral
a2ctbahecdqsix,l,neutral-neutral,172,72,2,NA,1,congruent,i,0,1,1,neutral
a2ctbahecdqsix,l,neutral-threat,173,73,2,NA,1,congruent,i,0,1,1,threat
a2ctbahecdqsix,l,threat-neutral,174,74,2,NA,1,congruent,i,0,1,1,neutral
a2ctbahecdqsix,i,neutral-neutral,175,75,2,968,1,incongruent,i,1,1,1,neutral
a2ctbahecdqsix,l,neutral-threat,176,76,2,NA,1,incongruent,i,0,1,1,threat
a2ctbahecdqsix,i,threat-threat,177,77,2,NA,0,congruent,i,1,0,1,threat
a2ctbahecdqsix,l,threat-neutral,178,78,2,NA,1,congruent,i,0,1,1,neutral
a2ctbahecdqsix,l,neutral-neutral,179,79,2,NA,1,congruent,b,0,1,1,neutral
a2ctbahecdqsix,l,neutral-threat,180,80,2,1470,0,congruent,i,0,1,0,threat
a2ctbahecdqsix,i,threat-threat,181,81,2,NA,0,incongruent,b,1,0,1,threat
a2ctbahecdqsix,l,threat-neutral,182,82,2,NA,1,congruent,b,1,1,1,neutral
a2ctbahecdqsix,l,neutral-neutral,183,83,2,NA,1,congruent,i,0,1,1,neutral
a2ctbahecdqsix,l,neutral-neutral,184,84,2,NA,1,congruent,b,0,1,1,neutral
a2ctbahecdqsix,l,neutral-threat,185,85,2,NA,1,congruent,i,0,1,1,threat
a2ctbahecdqsix,l,threat-neutral,186,86,2,NA,1,congruent,i,0,1,1,neutral
a2ctbahecdqsix,l,neutral-threat,187,87,2,NA,1,congruent,i,0,1,1,threat
a2ctbahecdqsix,l,threat-threat,188,88,2,NA,1,congruent,i,0,1,1,threat
a2ctbahecdqsix,l,threat-threat,189,89,2,NA,1,congruent,i,0,1,1,threat
a2ctbahecdqsix,l,threat-neutral,190,90,2,NA,1,congruent,i,0,1,1,neutral
a2ctbahecdqsix,l,neutral-neutral,191,91,2,NA,1,congruent,i,0,1,1,neutral
a2ctbahecdqsix,i,neutral-neutral,192,92,2,1323,1,incongruent,i,1,1,1,neutral
a2ctbahecdqsix,l,neutral-neutral,193,93,2,NA,1,incongruent,i,0,1,1,neutral
a2ctbahecdqsix,i,neutral-neutral,194,94,2,NA,0,congruent,i,1,0,1,neutral
a2ctbahecdqsix,l,neutral-threat,195,95,2,NA,1,congruent,i,0,1,1,threat
a2ctbahecdqsix,l,threat-neutral,196,96,2,NA,1,congruent,i,0,1,1,neutral
a2ctbahecdqsix,i,neutral-neutral,197,97,2,2100,1,incongruent,i,1,1,1,neutral
a2ctbahecdqsix,l,neutral-neutral,198,98,2,NA,1,incongruent,i,0,1,1,neutral
a2ctbahecdqsix,i,neutral-neutral,199,99,2,1300,1,congruent,i,1,1,1,neutral
a2ctbahecdqsix,l,neutral-neutral,200,100,2,NA,1,congruent,i,0,1,1,neutral
a178bxd4ubx932,l,threat-neutral,1,1,1,NA,1,congruent,b,1,1,1,neutral
a178bxd4ubx932,l,neutral-neutral,2,2,1,1157,0,incongruent,b,1,1,0,neutral
a178bxd4ubx932,l,neutral-threat,3,3,1,NA,1,incongruent,i,0,1,1,threat
a178bxd4ubx932,l,threat-threat,4,4,1,NA,1,incongruent,i,0,1,1,threat
a178bxd4ubx932,l,threat-neutral,5,5,1,NA,1,incongruent,i,0,1,1,neutral
a178bxd4ubx932,i,neutral-neutral,6,6,1,1115,1,congruent,i,1,1,1,neutral
a178bxd4ubx932,l,neutral-neutral,7,7,1,NA,1,congruent,b,0,1,1,neutral
a178bxd4ubx932,i,neutral-neutral,8,8,1,1640,1,incongruent,i,1,1,1,neutral
a178bxd4ubx932,l,neutral-threat,9,9,1,NA,1,incongruent,i,0,1,1,threat
a178bxd4ubx932,l,threat-neutral,10,10,1,NA,1,incongruent,i,0,1,1,neutral
a178bxd4ubx932,l,neutral-threat,11,11,1,NA,1,incongruent,i,0,1,1,threat
a178bxd4ubx932,i,threat-threat,12,12,1,1172,1,congruent,i,1,1,1,threat
a178bxd4ubx932,l,threat-neutral,13,13,1,NA,1,congruent,b,0,1,1,neutral
a178bxd4ubx932,l,neutral-threat,14,14,1,NA,1,congruent,i,0,1,1,threat
a178bxd4ubx932,l,threat-neutral,15,15,1,NA,1,congruent,b,0,1,1,neutral
a178bxd4ubx932,i,neutral-neutral,16,16,1,1219,1,incongruent,i,1,1,1,neutral
a178bxd4ubx932,l,neutral-threat,17,17,1,NA,1,incongruent,i,0,1,1,threat
a178bxd4ubx932,l,threat-neutral,18,18,1,NA,1,incongruent,b,0,1,1,neutral
a178bxd4ubx932,l,neutral-neutral,19,19,1,NA,1,incongruent,i,0,1,1,neutral
a178bxd4ubx932,l,neutral-neutral,20,20,1,NA,1,incongruent,b,0,1,1,neutral
a178bxd4ubx932,l,neutral-neutral,21,21,1,1233,0,congruent,b,1,1,0,neutral
a178bxd4ubx932,i,neutral-neutral,22,22,1,NA,0,incongruent,i,1,0,1,neutral
a178bxd4ubx932,l,neutral-neutral,23,23,1,NA,1,incongruent,i,0,1,1,neutral
a178bxd4ubx932,i,neutral-threat,24,24,1,2317,1,congruent,i,1,1,1,threat
a178bxd4ubx932,l,threat-neutral,25,25,1,NA,1,congruent,i,0,1,1,neutral
a178bxd4ubx932,l,neutral-threat,26,26,1,NA,1,congruent,i,0,1,1,threat
a178bxd4ubx932,l,threat-threat,27,27,1,NA,1,congruent,i,0,1,1,threat
a178bxd4ubx932,l,threat-neutral,28,28,1,NA,1,congruent,i,0,1,1,neutral
a178bxd4ubx932,l,neutral-threat,29,29,1,NA,1,congruent,i,0,1,1,threat
a178bxd4ubx932,l,threat-threat,30,30,1,NA,1,congruent,i,0,1,1,threat
a178bxd4ubx932,l,threat-neutral,31,31,1,NA,1,congruent,i,0,1,1,neutral
a178bxd4ubx932,l,neutral-neutral,32,32,1,NA,1,congruent,b,0,1,1,neutral
a178bxd4ubx932,l,neutral-threat,33,33,1,NA,1,congruent,i,0,1,1,threat
a178bxd4ubx932,l,threat-neutral,34,34,1,NA,1,congruent,i,0,1,1,neutral
a178bxd4ubx932,l,neutral-threat,35,35,1,NA,1,congruent,i,0,1,1,threat
a178bxd4ubx932,l,threat-neutral,36,36,1,NA,1,congruent,i,0,1,1,neutral
a178bxd4ubx932,i,neutral-neutral,37,37,1,1237,1,incongruent,b,1,1,1,neutral
a178bxd4ubx932,l,neutral-neutral,38,38,1,NA,1,incongruent,i,0,1,1,neutral
a178bxd4ubx932,l,neutral-threat,39,39,1,NA,1,incongruent,i,0,1,1,threat
a178bxd4ubx932,l,threat-neutral,40,40,1,NA,1,incongruent,i,0,1,1,neutral
a178bxd4ubx932,i,neutral-neutral,41,41,1,1250,1,congruent,i,1,1,1,neutral
a178bxd4ubx932,l,neutral-neutral,42,42,1,NA,1,congruent,i,0,1,1,neutral
a178bxd4ubx932,l,neutral-neutral,43,43,1,NA,1,congruent,b,0,1,1,neutral
a178bxd4ubx932,l,neutral-neutral,44,44,1,NA,1,congruent,i,0,1,1,neutral
a178bxd4ubx932,l,neutral-neutral,45,45,1,NA,1,congruent,b,0,1,1,neutral
a178bxd4ubx932,l,neutral-neutral,46,46,1,1015,0,incongruent,b,1,1,0,neutral
a178bxd4ubx932,l,neutral-neutral,47,47,1,NA,1,incongruent,i,0,1,1,neutral
a178bxd4ubx932,i,neutral-threat,48,48,1,NA,0,congruent,i,1,0,1,threat
a178bxd4ubx932,l,threat-threat,49,49,1,NA,1,congruent,i,0,1,1,threat
a178bxd4ubx932,l,threat-neutral,50,50,1,NA,1,congruent,i,0,1,1,neutral
a178bxd4ubx932,l,neutral-threat,51,51,1,NA,1,congruent,i,0,1,1,threat
a178bxd4ubx932,l,threat-neutral,52,52,1,NA,1,congruent,i,0,1,1,neutral
a178bxd4ubx932,l,neutral-neutral,53,53,1,NA,1,congruent,b,0,1,1,neutral
a178bxd4ubx932,i,neutral-threat,54,54,1,1423,1,incongruent,i,1,1,1,threat
a178bxd4ubx932,l,threat-neutral,55,55,1,NA,1,incongruent,i,0,1,1,neutral
a178bxd4ubx932,l,neutral-neutral,56,56,1,NA,1,incongruent,b,0,1,1,neutral
a178bxd4ubx932,i,neutral-threat,57,57,1,NA,0,congruent,i,1,0,1,threat
a178bxd4ubx932,l,threat-neutral,58,58,1,NA,1,congruent,i,0,1,1,neutral
a178bxd4ubx932,l,neutral-neutral,59,59,1,NA,1,congruent,i,0,1,1,neutral
a178bxd4ubx932,l,neutral-neutral,60,60,1,NA,1,congruent,b,0,1,1,neutral
a178bxd4ubx932,i,neutral-neutral,61,61,1,1515,1,incongruent,i,1,1,1,neutral
a178bxd4ubx932,l,neutral-neutral,62,62,1,NA,1,incongruent,i,0,1,1,neutral
a178bxd4ubx932,l,neutral-threat,63,63,1,NA,1,incongruent,i,0,1,1,threat
a178bxd4ubx932,l,threat-neutral,64,64,1,NA,1,incongruent,i,0,1,1,neutral
a178bxd4ubx932,l,neutral-threat,65,65,1,NA,1,incongruent,i,0,1,1,threat
a178bxd4ubx932,l,threat-threat,66,66,1,NA,1,incongruent,i,0,1,1,threat
a178bxd4ubx932,i,threat-neutral,67,67,1,1298,1,congruent,i,1,1,1,neutral
a178bxd4ubx932,l,neutral-threat,68,68,1,NA,1,congruent,i,0,1,1,threat
a178bxd4ubx932,l,threat-neutral,69,69,1,NA,1,congruent,b,0,1,1,neutral
a178bxd4ubx932,l,neutral-neutral,70,70,1,NA,1,congruent,i,0,1,1,neutral
a178bxd4ubx932,l,neutral-neutral,71,71,1,NA,1,congruent,i,0,1,1,neutral
a178bxd4ubx932,l,neutral-threat,72,72,1,NA,1,congruent,i,0,1,1,threat
a178bxd4ubx932,i,threat-neutral,73,73,1,1097,1,incongruent,b,1,1,1,neutral
a178bxd4ubx932,l,neutral-neutral,74,74,1,NA,1,congruent,b,1,1,1,neutral
a178bxd4ubx932,l,neutral-neutral,75,75,1,NA,1,congruent,i,0,1,1,neutral
a178bxd4ubx932,i,neutral-neutral,76,76,1,NA,0,incongruent,b,1,0,1,neutral
a178bxd4ubx932,l,neutral-threat,77,77,1,NA,1,incongruent,i,0,1,1,threat
a178bxd4ubx932,l,threat-neutral,78,78,1,NA,1,incongruent,i,0,1,1,neutral
a178bxd4ubx932,l,neutral-threat,79,79,1,NA,1,incongruent,i,0,1,1,threat
a178bxd4ubx932,i,threat-neutral,80,80,1,1402,1,congruent,b,1,1,1,neutral
a178bxd4ubx932,l,neutral-threat,81,81,1,NA,1,congruent,i,0,1,1,threat
a178bxd4ubx932,l,threat-neutral,82,82,1,NA,1,congruent,i,0,1,1,neutral
a178bxd4ubx932,i,neutral-neutral,83,83,1,NA,0,incongruent,i,1,0,1,neutral
a178bxd4ubx932,l,neutral-neutral,84,84,1,NA,1,incongruent,b,0,1,1,neutral
a178bxd4ubx932,l,neutral-neutral,85,85,1,NA,1,incongruent,i,0,1,1,neutral
a178bxd4ubx932,l,neutral-neutral,86,86,1,NA,1,incongruent,i,0,1,1,neutral
a178bxd4ubx932,l,neutral-neutral,87,87,1,NA,1,incongruent,b,0,1,1,neutral
a178bxd4ubx932,i,neutral-neutral,88,88,1,NA,0,congruent,i,1,0,1,neutral
a178bxd4ubx932,l,neutral-threat,89,89,1,NA,1,congruent,i,0,1,1,threat
a178bxd4ubx932,l,threat-neutral,90,90,1,NA,1,congruent,b,0,1,1,neutral
a178bxd4ubx932,l,neutral-neutral,91,91,1,NA,1,congruent,i,0,1,1,neutral
a178bxd4ubx932,l,neutral-neutral,92,92,1,NA,1,congruent,i,0,1,1,neutral
a178bxd4ubx932,l,neutral-threat,93,93,1,NA,1,congruent,i,0,1,1,threat
a178bxd4ubx932,l,threat-neutral,94,94,1,NA,1,congruent,i,0,1,1,neutral
a178bxd4ubx932,i,neutral-neutral,95,95,1,1673,1,incongruent,b,1,1,1,neutral
a178bxd4ubx932,l,neutral-neutral,96,96,1,NA,1,congruent,b,1,1,1,neutral
a178bxd4ubx932,l,neutral-threat,97,97,1,NA,1,congruent,i,0,1,1,threat
a178bxd4ubx932,l,threat-neutral,98,98,1,NA,1,congruent,i,0,1,1,neutral
a178bxd4ubx932,l,neutral-threat,99,99,1,125,0,congruent,i,0,1,0,threat
a178bxd4ubx932,l,threat-neutral,100,100,1,NA,1,congruent,i,0,1,1,neutral
a178bxd4ubx932,i,neutral-threat,101,1,2,NA,0,incongruent,i,1,0,1,threat
a178bxd4ubx932,l,threat-neutral,102,2,2,NA,1,incongruent,b,0,1,1,neutral
a178bxd4ubx932,l,neutral-neutral,103,3,2,NA,1,incongruent,i,0,1,1,neutral
a178bxd4ubx932,l,neutral-threat,104,4,2,NA,1,incongruent,i,0,1,1,threat
a178bxd4ubx932,i,threat-neutral,105,5,2,1359,1,congruent,i,1,1,1,neutral
a178bxd4ubx932,l,neutral-threat,106,6,2,NA,1,congruent,i,0,1,1,threat
a178bxd4ubx932,l,threat-neutral,107,7,2,NA,1,congruent,b,0,1,1,neutral
a178bxd4ubx932,i,neutral-threat,108,8,2,1460,1,incongruent,i,1,1,1,threat
a178bxd4ubx932,l,threat-neutral,109,9,2,NA,1,incongruent,i,0,1,1,neutral
a178bxd4ubx932,l,neutral-threat,110,10,2,NA,1,incongruent,i,0,1,1,threat
a178bxd4ubx932,l,threat-threat,111,11,2,NA,1,incongruent,i,0,1,1,threat
a178bxd4ubx932,l,threat-neutral,112,12,2,NA,1,incongruent,b,0,1,1,neutral
a178bxd4ubx932,i,neutral-threat,113,13,2,1058,1,congruent,i,1,1,1,threat
a178bxd4ubx932,l,threat-threat,114,14,2,NA,1,congruent,i,0,1,1,threat
a178bxd4ubx932,l,threat-neutral,115,15,2,NA,1,congruent,i,0,1,1,neutral
a178bxd4ubx932,i,neutral-neutral,116,16,2,1178,1,incongruent,b,1,1,1,neutral
a178bxd4ubx932,l,neutral-threat,117,17,2,NA,1,incongruent,i,0,1,1,threat
a178bxd4ubx932,l,threat-neutral,118,18,2,NA,1,incongruent,b,0,1,1,neutral
a178bxd4ubx932,l,neutral-neutral,119,19,2,NA,1,incongruent,i,0,1,1,neutral
a178bxd4ubx932,l,neutral-neutral,120,20,2,NA,1,incongruent,b,0,1,1,neutral
a178bxd4ubx932,l,neutral-neutral,121,21,2,1222,0,congruent,b,1,1,0,neutral
a178bxd4ubx932,l,neutral-threat,122,22,2,NA,1,congruent,i,0,1,1,threat
a178bxd4ubx932,l,threat-neutral,123,23,2,NA,1,congruent,i,0,1,1,neutral
a178bxd4ubx932,l,neutral-neutral,124,24,2,NA,1,congruent,b,0,1,1,neutral
a178bxd4ubx932,l,neutral-neutral,125,25,2,NA,1,congruent,i,0,1,1,neutral
a178bxd4ubx932,l,neutral-neutral,126,26,2,NA,1,congruent,i,0,1,1,neutral
a178bxd4ubx932,l,neutral-neutral,127,27,2,NA,1,congruent,b,0,1,1,neutral
a178bxd4ubx932,i,neutral-threat,128,28,2,1378,1,incongruent,i,1,1,1,threat
a178bxd4ubx932,l,threat-neutral,129,29,2,NA,1,incongruent,i,0,1,1,neutral
a178bxd4ubx932,l,neutral-neutral,130,30,2,NA,1,incongruent,b,0,1,1,neutral
a178bxd4ubx932,l,neutral-neutral,131,31,2,NA,1,incongruent,i,0,1,1,neutral
a178bxd4ubx932,i,neutral-neutral,132,32,2,1169,1,congruent,i,1,1,1,neutral
a178bxd4ubx932,l,neutral-threat,133,33,2,NA,1,congruent,i,0,1,1,threat
a178bxd4ubx932,l,threat-threat,134,34,2,NA,1,congruent,i,0,1,1,threat
a178bxd4ubx932,i,threat-threat,135,35,2,1436,1,incongruent,i,1,1,1,threat
a178bxd4ubx932,l,threat-neutral,136,36,2,NA,1,incongruent,i,0,1,1,neutral
a178bxd4ubx932,l,neutral-neutral,137,37,2,NA,1,incongruent,i,0,1,1,neutral
a178bxd4ubx932,l,neutral-neutral,138,38,2,NA,1,incongruent,i,0,1,1,neutral
a178bxd4ubx932,l,neutral-threat,139,39,2,NA,1,incongruent,i,0,1,1,threat
a178bxd4ubx932,l,threat-neutral,140,40,2,NA,1,incongruent,i,0,1,1,neutral
a178bxd4ubx932,i,neutral-neutral,141,41,2,1084,1,congruent,b,1,1,1,neutral
a178bxd4ubx932,l,neutral-threat,142,42,2,NA,1,congruent,i,0,1,1,threat
a178bxd4ubx932,l,threat-neutral,143,43,2,NA,1,congruent,b,0,1,1,neutral
a178bxd4ubx932,i,neutral-threat,144,44,2,NA,0,incongruent,i,1,0,1,threat
a178bxd4ubx932,l,threat-neutral,145,45,2,NA,1,incongruent,i,0,1,1,neutral
a178bxd4ubx932,l,neutral-threat,146,46,2,NA,1,incongruent,i,0,1,1,threat
a178bxd4ubx932,l,threat-neutral,147,47,2,NA,1,incongruent,i,0,1,1,neutral
a178bxd4ubx932,l,neutral-threat,148,48,2,NA,1,incongruent,i,0,1,1,threat
a178bxd4ubx932,l,threat-threat,149,49,2,NA,1,incongruent,i,0,1,1,threat
a178bxd4ubx932,l,threat-neutral,150,50,2,NA,1,incongruent,i,0,1,1,neutral
a178bxd4ubx932,l,neutral-neutral,151,51,2,NA,1,incongruent,b,0,1,1,neutral
a178bxd4ubx932,l,neutral-neutral,152,52,2,NA,1,incongruent,i,0,1,1,neutral
a178bxd4ubx932,l,neutral-threat,153,53,2,NA,1,incongruent,i,0,1,1,threat
a178bxd4ubx932,l,threat-neutral,154,54,2,NA,1,incongruent,i,0,1,1,neutral
a178bxd4ubx932,i,neutral-threat,155,55,2,1202,1,congruent,i,1,1,1,threat
a178bxd4ubx932,l,threat-neutral,156,56,2,NA,1,congruent,i,0,1,1,neutral
a178bxd4ubx932,i,neutral-threat,157,57,2,1313,1,incongruent,i,1,1,1,threat
a178bxd4ubx932,l,threat-neutral,158,58,2,NA,1,incongruent,b,0,1,1,neutral
a178bxd4ubx932,l,neutral-neutral,159,59,2,NA,1,incongruent,i,0,1,1,neutral
a178bxd4ubx932,l,neutral-neutral,160,60,2,NA,1,incongruent,i,0,1,1,neutral
a178bxd4ubx932,i,neutral-threat,161,61,2,1314,1,congruent,i,1,1,1,threat
a178bxd4ubx932,l,threat-threat,162,62,2,NA,1,congruent,i,0,1,1,threat
a178bxd4ubx932,l,threat-neutral,163,63,2,NA,1,congruent,i,0,1,1,neutral
a178bxd4ubx932,i,neutral-neutral,164,64,2,1124,1,incongruent,i,1,1,1,neutral
a178bxd4ubx932,l,neutral-neutral,165,65,2,NA,1,incongruent,b,0,1,1,neutral
a178bxd4ubx932,i,neutral-threat,166,66,2,1590,1,congruent,i,1,1,1,threat
a178bxd4ubx932,l,threat-neutral,167,67,2,NA,1,congruent,b,0,1,1,neutral
a178bxd4ubx932,l,neutral-neutral,168,68,2,NA,1,incongruent,b,1,1,1,neutral
a178bxd4ubx932,l,neutral-threat,169,69,2,NA,1,incongruent,i,0,1,1,threat
a178bxd4ubx932,l,threat-neutral,170,70,2,NA,1,incongruent,b,0,1,1,neutral
a178bxd4ubx932,i,neutral-neutral,171,71,2,1253,1,congruent,i,1,1,1,neutral
a178bxd4ubx932,l,neutral-threat,172,72,2,NA,1,congruent,i,0,1,1,threat
a178bxd4ubx932,l,threat-neutral,173,73,2,NA,1,congruent,i,0,1,1,neutral
a178bxd4ubx932,l,neutral-threat,174,74,2,NA,1,congruent,i,0,1,1,threat
a178bxd4ubx932,l,threat-neutral,175,75,2,NA,1,congruent,i,0,1,1,neutral
a178bxd4ubx932,l,neutral-neutral,176,76,2,NA,1,congruent,i,0,1,1,neutral
a178bxd4ubx932,l,neutral-neutral,177,77,2,NA,1,congruent,b,0,1,1,neutral
a178bxd4ubx932,l,neutral-threat,178,78,2,NA,1,congruent,i,0,1,1,threat
a178bxd4ubx932,l,threat-neutral,179,79,2,NA,1,congruent,b,0,1,1,neutral
a178bxd4ubx932,i,neutral-threat,180,80,2,1281,1,incongruent,i,1,1,1,threat
a178bxd4ubx932,l,threat-neutral,181,81,2,NA,1,incongruent,i,0,1,1,neutral
a178bxd4ubx932,l,neutral-neutral,182,82,2,NA,1,incongruent,i,0,1,1,neutral
a178bxd4ubx932,i,neutral-threat,183,83,2,1252,1,congruent,i,1,1,1,threat
a178bxd4ubx932,l,threat-neutral,184,84,2,NA,1,congruent,i,0,1,1,neutral
a178bxd4ubx932,l,neutral-threat,185,85,2,NA,1,congruent,i,0,1,1,threat
a178bxd4ubx932,l,threat-neutral,186,86,2,NA,1,congruent,i,0,1,1,neutral
a178bxd4ubx932,l,neutral-neutral,187,87,2,NA,1,congruent,b,0,1,1,neutral
a178bxd4ubx932,l,neutral-neutral,188,88,2,NA,1,incongruent,b,1,1,1,neutral
a178bxd4ubx932,l,neutral-threat,189,89,2,NA,1,incongruent,i,0,1,1,threat
a178bxd4ubx932,l,threat-neutral,190,90,2,NA,1,incongruent,i,0,1,1,neutral
a178bxd4ubx932,i,neutral-neutral,191,91,2,1303,1,congruent,b,1,1,1,neutral
a178bxd4ubx932,l,neutral-neutral,192,92,2,NA,1,congruent,i,0,1,1,neutral
a178bxd4ubx932,l,neutral-threat,193,93,2,NA,1,congruent,i,0,1,1,threat
a178bxd4ubx932,i,threat-threat,194,94,2,1601,1,incongruent,i,1,1,1,threat
a178bxd4ubx932,l,threat-neutral,195,95,2,NA,1,incongruent,i,0,1,1,neutral
a178bxd4ubx932,l,neutral-neutral,196,96,2,NA,1,incongruent,b,0,1,1,neutral
a178bxd4ubx932,l,neutral-threat,197,97,2,NA,1,incongruent,i,0,1,1,threat
a178bxd4ubx932,l,threat-neutral,198,98,2,NA,1,incongruent,i,0,1,1,neutral
a178bxd4ubx932,l,neutral-threat,199,99,2,NA,1,incongruent,i,0,1,1,threat
a178bxd4ubx932,l,threat-neutral,200,100,2,NA,1,incongruent,i,0,1,1,neutral
a2tbkohgx08vrk,l,neutral-neutral,1,1,1,1086,0,congruent,i,1,1,0,neutral
a2tbkohgx08vrk,l,neutral-threat,2,2,1,1588,0,congruent,i,0,1,0,threat
a2tbkohgx08vrk,l,threat-neutral,3,3,1,1875,0,congruent,i,0,1,0,neutral
a2tbkohgx08vrk,l,neutral-threat,4,4,1,1536,0,congruent,i,0,1,0,threat
a2tbkohgx08vrk,l,threat-neutral,5,5,1,1434,0,congruent,b,0,1,0,neutral
a2tbkohgx08vrk,l,neutral-threat,6,6,1,921,0,congruent,i,0,1,0,threat
a2tbkohgx08vrk,l,threat-neutral,7,7,1,1439,0,congruent,i,0,1,0,neutral
a2tbkohgx08vrk,l,neutral-neutral,8,8,1,1143,0,congruent,b,0,1,0,neutral
a2tbkohgx08vrk,l,neutral-threat,9,9,1,1232,0,congruent,i,0,1,0,threat
a2tbkohgx08vrk,i,threat-threat,10,10,1,1520,1,incongruent,b,1,1,1,threat
a2tbkohgx08vrk,l,threat-neutral,11,11,1,1614,0,incongruent,i,0,1,0,neutral
a2tbkohgx08vrk,l,neutral-threat,12,12,1,1741,0,incongruent,b,0,1,0,threat
a2tbkohgx08vrk,i,threat-neutral,13,13,1,1505,1,congruent,i,1,1,1,neutral
a2tbkohgx08vrk,l,neutral-neutral,14,14,1,1504,0,congruent,i,0,1,0,neutral
a2tbkohgx08vrk,l,neutral-neutral,15,15,1,1722,0,congruent,i,0,1,0,neutral
a2tbkohgx08vrk,l,neutral-neutral,16,16,1,1266,0,congruent,i,0,1,0,neutral
a2tbkohgx08vrk,i,neutral-neutral,17,17,1,2079,1,incongruent,i,1,1,1,neutral
a2tbkohgx08vrk,l,neutral-neutral,18,18,1,1332,0,incongruent,i,0,1,0,neutral
a2tbkohgx08vrk,l,neutral-threat,19,19,1,984,0,incongruent,i,0,1,0,threat
a2tbkohgx08vrk,i,threat-threat,20,20,1,1102,1,congruent,i,1,1,1,threat
a2tbkohgx08vrk,l,threat-neutral,21,21,1,1557,0,congruent,b,0,1,0,neutral
a2tbkohgx08vrk,l,neutral-neutral,22,22,1,1150,0,congruent,i,0,1,0,neutral
a2tbkohgx08vrk,l,neutral-threat,23,23,1,1438,0,congruent,i,0,1,0,threat
a2tbkohgx08vrk,l,threat-neutral,24,24,1,1326,0,congruent,i,0,1,0,neutral
a2tbkohgx08vrk,i,neutral-neutral,25,25,1,1852,1,incongruent,i,1,1,1,neutral
a2tbkohgx08vrk,l,neutral-threat,26,26,1,1530,0,incongruent,i,0,1,0,threat
a2tbkohgx08vrk,i,threat-threat,27,27,1,1663,1,congruent,i,1,1,1,threat
a2tbkohgx08vrk,l,threat-threat,28,28,1,1497,0,congruent,i,0,1,0,threat
a2tbkohgx08vrk,l,threat-neutral,29,29,1,1029,0,congruent,b,0,1,0,neutral
a2tbkohgx08vrk,l,neutral-neutral,30,30,1,1272,0,congruent,i,0,1,0,neutral
a2tbkohgx08vrk,l,neutral-neutral,31,31,1,1514,0,congruent,i,0,1,0,neutral
a2tbkohgx08vrk,l,neutral-threat,32,32,1,1215,0,congruent,i,0,1,0,threat
a2tbkohgx08vrk,l,threat-neutral,33,33,1,852,0,congruent,i,0,1,0,neutral
a2tbkohgx08vrk,l,neutral-neutral,34,34,1,1115,0,congruent,i,0,1,0,neutral
a2tbkohgx08vrk,l,neutral-threat,35,35,1,1457,0,congruent,i,0,1,0,threat
a2tbkohgx08vrk,l,threat-threat,36,36,1,1277,0,congruent,i,0,1,0,threat
a2tbkohgx08vrk,i,threat-neutral,37,37,1,1396,1,incongruent,i,1,1,1,neutral
a2tbkohgx08vrk,l,neutral-neutral,38,38,1,1263,0,incongruent,i,0,1,0,neutral
a2tbkohgx08vrk,l,neutral-neutral,39,39,1,965,0,incongruent,i,0,1,0,neutral
a2tbkohgx08vrk,i,neutral-threat,40,40,1,1277,1,congruent,i,1,1,1,threat
a2tbkohgx08vrk,l,threat-neutral,41,41,1,1408,0,congruent,i,0,1,0,neutral
a2tbkohgx08vrk,l,neutral-threat,42,42,1,1641,0,congruent,i,0,1,0,threat
a2tbkohgx08vrk,l,threat-neutral,43,43,1,NA,1,congruent,b,0,1,1,neutral
a2tbkohgx08vrk,l,neutral-threat,44,44,1,1606,0,congruent,i,0,1,0,threat
a2tbkohgx08vrk,l,threat-threat,45,45,1,986,0,congruent,i,0,1,0,threat
a2tbkohgx08vrk,l,threat-neutral,46,46,1,839,0,congruent,i,0,1,0,neutral
a2tbkohgx08vrk,l,neutral-threat,47,47,1,1852,0,congruent,i,0,1,0,threat
a2tbkohgx08vrk,i,threat-neutral,48,48,1,869,1,incongruent,i,1,1,1,neutral
a2tbkohgx08vrk,l,neutral-threat,49,49,1,1088,0,incongruent,b,0,1,0,threat
a2tbkohgx08vrk,l,threat-neutral,50,50,1,1533,0,congruent,b,1,1,0,neutral
a2tbkohgx08vrk,l,neutral-neutral,51,51,1,1413,0,congruent,i,0,1,0,neutral
a2tbkohgx08vrk,l,neutral-neutral,52,52,1,1335,0,congruent,i,0,1,0,neutral
a2tbkohgx08vrk,i,neutral-neutral,53,53,1,1147,1,incongruent,i,1,1,1,neutral
a2tbkohgx08vrk,l,neutral-threat,54,54,1,1616,0,incongruent,b,0,1,0,threat
a2tbkohgx08vrk,i,threat-neutral,55,55,1,1698,1,congruent,i,1,1,1,neutral
a2tbkohgx08vrk,l,neutral-neutral,56,56,1,1497,0,congruent,i,0,1,0,neutral
a2tbkohgx08vrk,l,neutral-neutral,57,57,1,1237,0,congruent,b,0,1,0,neutral
a2tbkohgx08vrk,i,neutral-neutral,58,58,1,949,1,incongruent,i,1,1,1,neutral
a2tbkohgx08vrk,l,neutral-threat,59,59,1,1040,0,incongruent,i,0,1,0,threat
a2tbkohgx08vrk,l,threat-threat,60,60,1,1086,0,incongruent,b,0,1,0,threat
a2tbkohgx08vrk,l,threat-neutral,61,61,1,1303,0,congruent,b,1,1,0,neutral
a2tbkohgx08vrk,i,neutral-threat,62,62,1,898,1,incongruent,i,1,1,1,threat
a2tbkohgx08vrk,l,threat-neutral,63,63,1,1292,0,incongruent,i,0,1,0,neutral
a2tbkohgx08vrk,l,neutral-neutral,64,64,1,1043,0,incongruent,i,0,1,0,neutral
a2tbkohgx08vrk,l,neutral-threat,65,65,1,1373,0,incongruent,i,0,1,0,threat
a2tbkohgx08vrk,i,threat-threat,66,66,1,1150,1,congruent,i,1,1,1,threat
a2tbkohgx08vrk,l,threat-threat,67,67,1,1533,0,congruent,i,0,1,0,threat
a2tbkohgx08vrk,l,threat-neutral,68,68,1,985,0,congruent,i,0,1,0,neutral
a2tbkohgx08vrk,l,neutral-threat,69,69,1,1252,0,congruent,i,0,1,0,threat
a2tbkohgx08vrk,l,threat-neutral,70,70,1,987,0,congruent,i,0,1,0,neutral
a2tbkohgx08vrk,i,neutral-neutral,71,71,1,1000,1,incongruent,i,1,1,1,neutral
a2tbkohgx08vrk,l,neutral-threat,72,72,1,1520,0,incongruent,b,0,1,0,threat
a2tbkohgx08vrk,l,threat-neutral,73,73,1,925,0,incongruent,i,0,1,0,neutral
a2tbkohgx08vrk,i,neutral-neutral,74,74,1,1057,1,congruent,b,1,1,1,neutral
a2tbkohgx08vrk,l,neutral-threat,75,75,1,1193,0,congruent,i,0,1,0,threat
a2tbkohgx08vrk,l,threat-neutral,76,76,1,1488,0,congruent,i,0,1,0,neutral
a2tbkohgx08vrk,l,neutral-neutral,77,77,1,1169,0,congruent,b,0,1,0,neutral
a2tbkohgx08vrk,l,neutral-neutral,78,78,1,1086,0,congruent,i,0,1,0,neutral
a2tbkohgx08vrk,l,neutral-threat,79,79,1,1519,0,congruent,i,0,1,0,threat
a2tbkohgx08vrk,l,threat-neutral,80,80,1,1588,0,congruent,i,0,1,0,neutral
a2tbkohgx08vrk,l,neutral-threat,81,81,1,944,0,congruent,i,0,1,0,threat
a2tbkohgx08vrk,l,threat-threat,82,82,1,821,0,congruent,i,0,1,0,threat
a2tbkohgx08vrk,l,threat-neutral,83,83,1,1039,0,congruent,i,0,1,0,neutral
a2tbkohgx08vrk,l,neutral-neutral,84,84,1,1008,0,congruent,b,0,1,0,neutral
a2tbkohgx08vrk,i,neutral-neutral,85,85,1,908,1,incongruent,i,1,1,1,neutral
a2tbkohgx08vrk,l,neutral-threat,86,86,1,1315,0,incongruent,i,0,1,0,threat
a2tbkohgx08vrk,l,threat-neutral,87,87,1,229,0,incongruent,i,0,1,0,neutral
a2tbkohgx08vrk,l,neutral-neutral,88,88,1,911,0,incongruent,i,0,1,0,neutral
a2tbkohgx08vrk,i,neutral-neutral,89,89,1,822,1,congruent,b,1,1,1,neutral
a2tbkohgx08vrk,l,neutral-threat,90,90,1,1752,0,congruent,i,0,1,0,threat
a2tbkohgx08vrk,l,threat-neutral,91,91,1,249,0,congruent,i,0,1,0,neutral
a2tbkohgx08vrk,l,neutral-neutral,92,92,1,NA,1,congruent,b,0,1,1,neutral
a2tbkohgx08vrk,l,neutral-threat,93,93,1,NA,1,congruent,i,0,1,1,threat
a2tbkohgx08vrk,l,threat-neutral,94,94,1,NA,1,congruent,i,0,1,1,neutral
a2tbkohgx08vrk,i,neutral-threat,95,95,1,3375,1,incongruent,i,1,1,1,threat
a2tbkohgx08vrk,l,threat-neutral,96,96,1,1602,0,incongruent,i,0,1,0,neutral
a2tbkohgx08vrk,l,neutral-neutral,97,97,1,1005,0,incongruent,i,0,1,0,neutral
a2tbkohgx08vrk,i,neutral-neutral,98,98,1,113,1,congruent,i,1,1,1,neutral
a2tbkohgx08vrk,l,neutral-threat,99,99,1,1344,0,congruent,i,0,1,0,threat
a2tbkohgx08vrk,l,threat-threat,100,100,1,1246,0,congruent,i,0,1,0,threat
a2tbkohgx08vrk,l,threat-neutral,101,1,2,822,0,congruent,i,0,1,0,neutral
a2tbkohgx08vrk,l,neutral-threat,102,2,2,NA,1,congruent,i,0,1,1,threat
a2tbkohgx08vrk,l,threat-neutral,103,3,2,52,0,congruent,b,0,1,0,neutral
a2tbkohgx08vrk,l,neutral-neutral,104,4,2,NA,1,congruent,i,0,1,1,neutral
a2tbkohgx08vrk,l,neutral-neutral,105,5,2,632,0,congruent,b,0,1,0,neutral
a2tbkohgx08vrk,l,neutral-threat,106,6,2,665,0,congruent,i,0,1,0,threat
a2tbkohgx08vrk,l,threat-threat,107,7,2,945,0,congruent,i,0,1,0,threat
a2tbkohgx08vrk,l,threat-neutral,108,8,2,747,0,congruent,b,0,1,0,neutral
a2tbkohgx08vrk,i,neutral-neutral,109,9,2,510,1,incongruent,i,1,1,1,neutral
a2tbkohgx08vrk,l,neutral-neutral,110,10,2,1145,0,incongruent,i,0,1,0,neutral
a2tbkohgx08vrk,l,neutral-neutral,111,11,2,907,0,incongruent,i,0,1,0,neutral
a2tbkohgx08vrk,i,neutral-neutral,112,12,2,989,1,congruent,i,1,1,1,neutral
a2tbkohgx08vrk,l,neutral-threat,113,13,2,1142,0,congruent,i,0,1,0,threat
a2tbkohgx08vrk,i,threat-threat,114,14,2,1088,1,incongruent,b,1,1,1,threat
a2tbkohgx08vrk,l,threat-neutral,115,15,2,1229,0,incongruent,i,0,1,0,neutral
a2tbkohgx08vrk,l,neutral-neutral,116,16,2,920,0,incongruent,i,0,1,0,neutral
a2tbkohgx08vrk,l,neutral-neutral,117,17,2,876,0,incongruent,i,0,1,0,neutral
a2tbkohgx08vrk,l,neutral-neutral,118,18,2,NA,1,incongruent,i,0,1,1,neutral
a2tbkohgx08vrk,i,neutral-threat,119,19,2,2104,1,congruent,i,1,1,1,threat
a2tbkohgx08vrk,l,threat-neutral,120,20,2,1566,0,congruent,b,0,1,0,neutral
a2tbkohgx08vrk,l,neutral-threat,121,21,2,1939,0,congruent,i,0,1,0,threat
a2tbkohgx08vrk,l,threat-neutral,122,22,2,1212,0,congruent,i,0,1,0,neutral
a2tbkohgx08vrk,l,neutral-threat,123,23,2,1165,0,congruent,i,0,1,0,threat
a2tbkohgx08vrk,l,threat-neutral,124,24,2,1046,0,congruent,b,0,1,0,neutral
a2tbkohgx08vrk,l,neutral-neutral,125,25,2,1485,0,congruent,i,0,1,0,neutral
a2tbkohgx08vrk,l,neutral-threat,126,26,2,963,0,congruent,i,0,1,0,threat
a2tbkohgx08vrk,l,threat-threat,127,27,2,1105,0,congruent,i,0,1,0,threat
a2tbkohgx08vrk,i,threat-threat,128,28,2,1498,1,incongruent,b,1,1,1,threat
a2tbkohgx08vrk,l,threat-threat,129,29,2,963,0,incongruent,i,0,1,0,threat
a2tbkohgx08vrk,l,threat-neutral,130,30,2,1325,0,incongruent,i,0,1,0,neutral
a2tbkohgx08vrk,l,neutral-neutral,131,31,2,1487,0,incongruent,i,0,1,0,neutral
a2tbkohgx08vrk,l,neutral-threat,132,32,2,752,0,incongruent,i,0,1,0,threat
a2tbkohgx08vrk,i,threat-threat,133,33,2,1173,1,congruent,i,1,1,1,threat
a2tbkohgx08vrk,l,threat-threat,134,34,2,1677,0,congruent,i,0,1,0,threat
a2tbkohgx08vrk,i,threat-threat,135,35,2,962,1,incongruent,b,1,1,1,threat
a2tbkohgx08vrk,l,threat-threat,136,36,2,1269,0,incongruent,i,0,1,0,threat
a2tbkohgx08vrk,l,threat-neutral,137,37,2,1104,0,incongruent,i,0,1,0,neutral
a2tbkohgx08vrk,l,neutral-neutral,138,38,2,1439,0,incongruent,i,0,1,0,neutral
a2tbkohgx08vrk,i,neutral-threat,139,39,2,1191,1,congruent,i,1,1,1,threat
a2tbkohgx08vrk,l,threat-neutral,140,40,2,1555,0,congruent,b,0,1,0,neutral
a2tbkohgx08vrk,l,neutral-threat,141,41,2,585,0,congruent,i,0,1,0,threat
a2tbkohgx08vrk,l,threat-neutral,142,42,2,1330,0,congruent,i,0,1,0,neutral
a2tbkohgx08vrk,l,neutral-threat,143,43,2,402,0,congruent,i,0,1,0,threat
a2tbkohgx08vrk,l,threat-neutral,144,44,2,NA,1,congruent,b,0,1,1,neutral
a2tbkohgx08vrk,l,neutral-threat,145,45,2,NA,1,incongruent,b,1,1,1,threat
a2tbkohgx08vrk,i,threat-neutral,146,46,2,NA,0,congruent,i,1,0,1,neutral
a2tbkohgx08vrk,l,neutral-neutral,147,47,2,NA,1,congruent,i,0,1,1,neutral
a2tbkohgx08vrk,l,neutral-threat,148,48,2,NA,1,congruent,i,0,1,1,threat
a2tbkohgx08vrk,l,threat-neutral,149,49,2,NA,1,congruent,b,0,1,1,neutral
a2tbkohgx08vrk,l,neutral-threat,150,50,2,NA,1,incongruent,b,1,1,1,threat
a2tbkohgx08vrk,l,threat-neutral,151,51,2,NA,1,incongruent,i,0,1,1,neutral
a2tbkohgx08vrk,l,neutral-neutral,152,52,2,NA,1,incongruent,i,0,1,1,neutral
a2tbkohgx08vrk,i,neutral-neutral,153,53,2,NA,0,congruent,i,1,0,1,neutral
a2tbkohgx08vrk,l,neutral-threat,154,54,2,NA,1,congruent,i,0,1,1,threat
a2tbkohgx08vrk,i,threat-threat,155,55,2,4333,1,incongruent,b,1,1,1,threat
a2tbkohgx08vrk,l,threat-neutral,156,56,2,1796,0,congruent,b,1,1,0,neutral
a2tbkohgx08vrk,l,neutral-neutral,157,57,2,1099,0,congruent,i,0,1,0,neutral
a2tbkohgx08vrk,l,neutral-neutral,158,58,2,859,0,congruent,b,0,1,0,neutral
a2tbkohgx08vrk,l,neutral-threat,159,59,2,1293,0,incongruent,b,1,1,0,threat
a2tbkohgx08vrk,i,threat-neutral,160,60,2,258,1,congruent,i,1,1,1,neutral
a2tbkohgx08vrk,l,neutral-neutral,161,61,2,352,0,congruent,i,0,1,0,neutral
a2tbkohgx08vrk,l,neutral-threat,162,62,2,NA,1,congruent,i,0,1,1,threat
a2tbkohgx08vrk,l,threat-neutral,163,63,2,1653,0,congruent,b,0,1,0,neutral
a2tbkohgx08vrk,l,neutral-neutral,164,64,2,281,0,congruent,i,0,1,0,neutral
a2tbkohgx08vrk,i,neutral-threat,165,65,2,1166,1,incongruent,i,1,1,1,threat
a2tbkohgx08vrk,l,threat-threat,166,66,2,1096,0,incongruent,b,0,1,0,threat
a2tbkohgx08vrk,l,threat-neutral,167,67,2,784,0,incongruent,i,0,1,0,neutral
a2tbkohgx08vrk,l,neutral-neutral,168,68,2,908,0,incongruent,i,0,1,0,neutral
a2tbkohgx08vrk,l,neutral-threat,169,69,2,860,0,incongruent,b,0,1,0,threat
a2tbkohgx08vrk,l,threat-neutral,170,70,2,947,0,incongruent,i,0,1,0,neutral
a2tbkohgx08vrk,l,neutral-neutral,171,71,2,793,0,incongruent,i,0,1,0,neutral
a2tbkohgx08vrk,i,neutral-neutral,172,72,2,771,1,congruent,b,1,1,1,neutral
a2tbkohgx08vrk,l,neutral-neutral,173,73,2,758,0,congruent,i,0,1,0,neutral
a2tbkohgx08vrk,l,neutral-threat,174,74,2,712,0,congruent,i,0,1,0,threat
a2tbkohgx08vrk,i,threat-neutral,175,75,2,2773,1,incongruent,i,1,1,1,neutral
a2tbkohgx08vrk,l,neutral-neutral,176,76,2,913,0,incongruent,i,0,1,0,neutral
a2tbkohgx08vrk,i,neutral-threat,177,77,2,3813,1,congruent,i,1,1,1,threat
a2tbkohgx08vrk,l,threat-threat,178,78,2,NA,1,congruent,i,0,1,1,threat
a2tbkohgx08vrk,l,threat-neutral,179,79,2,790,0,congruent,b,0,1,0,neutral
a2tbkohgx08vrk,l,neutral-threat,180,80,2,1544,0,congruent,i,0,1,0,threat
a2tbkohgx08vrk,l,threat-neutral,181,81,2,NA,1,congruent,b,0,1,1,neutral
a2tbkohgx08vrk,l,neutral-threat,182,82,2,1448,0,congruent,i,0,1,0,threat
a2tbkohgx08vrk,l,threat-neutral,183,83,2,1235,0,congruent,i,0,1,0,neutral
a2tbkohgx08vrk,l,neutral-threat,184,84,2,NA,1,congruent,i,0,1,1,threat
a2tbkohgx08vrk,l,threat-threat,185,85,2,1851,0,congruent,i,0,1,0,threat
a2tbkohgx08vrk,i,threat-neutral,186,86,2,1177,1,incongruent,i,1,1,1,neutral
a2tbkohgx08vrk,l,neutral-neutral,187,87,2,923,0,incongruent,i,0,1,0,neutral
a2tbkohgx08vrk,l,neutral-threat,188,88,2,961,0,incongruent,i,0,1,0,threat
a2tbkohgx08vrk,l,threat-neutral,189,89,2,424,0,incongruent,i,0,1,0,neutral
a2tbkohgx08vrk,l,neutral-neutral,190,90,2,NA,1,incongruent,i,0,1,1,neutral
a2tbkohgx08vrk,l,neutral-neutral,191,91,2,NA,1,incongruent,i,0,1,1,neutral
a2tbkohgx08vrk,l,neutral-threat,192,92,2,122,0,incongruent,b,0,1,0,threat
a2tbkohgx08vrk,i,threat-threat,193,93,2,604,1,congruent,i,1,1,1,threat
a2tbkohgx08vrk,l,threat-neutral,194,94,2,848,0,congruent,b,0,1,0,neutral
a2tbkohgx08vrk,i,neutral-neutral,195,95,2,777,1,incongruent,i,1,1,1,neutral
a2tbkohgx08vrk,l,neutral-threat,196,96,2,368,0,incongruent,b,0,1,0,threat
a2tbkohgx08vrk,i,threat-threat,197,97,2,851,1,congruent,i,1,1,1,threat
a2tbkohgx08vrk,l,threat-neutral,198,98,2,685,0,congruent,b,0,1,0,neutral
a2tbkohgx08vrk,l,neutral-neutral,199,99,2,954,0,congruent,i,0,1,0,neutral
a2tbkohgx08vrk,l,neutral-neutral,200,100,2,887,0,congruent,i,0,1,0,neutral
a170wnufjk56wd,l,neutral-neutral,1,1,1,NA,1,incongruent,i,1,1,1,neutral
a170wnufjk56wd,l,neutral-neutral,2,2,1,NA,1,incongruent,i,0,1,1,neutral
a170wnufjk56wd,l,neutral-neutral,3,3,1,NA,1,incongruent,i,0,1,1,neutral
a170wnufjk56wd,l,neutral-threat,4,4,1,NA,1,incongruent,i,0,1,1,threat
a170wnufjk56wd,l,threat-neutral,5,5,1,NA,1,incongruent,i,0,1,1,neutral
a170wnufjk56wd,l,neutral-neutral,6,6,1,NA,1,incongruent,i,0,1,1,neutral
a170wnufjk56wd,i,neutral-neutral,7,7,1,1124,1,congruent,i,1,1,1,neutral
a170wnufjk56wd,l,neutral-neutral,8,8,1,NA,1,congruent,i,0,1,1,neutral
a170wnufjk56wd,l,neutral-neutral,9,9,1,NA,1,congruent,b,0,1,1,neutral
a170wnufjk56wd,i,neutral-neutral,10,10,1,1297,1,incongruent,i,1,1,1,neutral
a170wnufjk56wd,l,neutral-neutral,11,11,1,NA,1,incongruent,i,0,1,1,neutral
a170wnufjk56wd,l,neutral-threat,12,12,1,NA,1,incongruent,i,0,1,1,threat
a170wnufjk56wd,i,threat-threat,13,13,1,1624,1,congruent,i,1,1,1,threat
a170wnufjk56wd,l,threat-neutral,14,14,1,NA,1,congruent,i,0,1,1,neutral
a170wnufjk56wd,l,neutral-neutral,15,15,1,NA,1,congruent,b,0,1,1,neutral
a170wnufjk56wd,l,neutral-threat,16,16,1,1594,0,incongruent,b,1,1,0,threat
a170wnufjk56wd,l,threat-threat,17,17,1,NA,1,incongruent,i,0,1,1,threat
a170wnufjk56wd,i,threat-neutral,18,18,1,NA,0,congruent,b,1,0,1,neutral
a170wnufjk56wd,l,neutral-neutral,19,19,1,NA,1,congruent,i,0,1,1,neutral
a170wnufjk56wd,l,neutral-neutral,20,20,1,NA,1,congruent,i,0,1,1,neutral
a170wnufjk56wd,l,neutral-neutral,21,21,1,NA,1,congruent,i,0,1,1,neutral
a170wnufjk56wd,l,neutral-neutral,22,22,1,NA,1,congruent,i,0,1,1,neutral
a170wnufjk56wd,i,neutral-neutral,23,23,1,1559,1,incongruent,i,1,1,1,neutral
a170wnufjk56wd,l,neutral-threat,24,24,1,NA,1,incongruent,b,0,1,1,threat
a170wnufjk56wd,l,threat-neutral,25,25,1,NA,1,incongruent,i,0,1,1,neutral
a170wnufjk56wd,l,neutral-neutral,26,26,1,NA,1,incongruent,i,0,1,1,neutral
a170wnufjk56wd,i,neutral-threat,27,27,1,1329,1,congruent,i,1,1,1,threat
a170wnufjk56wd,l,threat-neutral,28,28,1,NA,1,congruent,b,0,1,1,neutral
a170wnufjk56wd,l,neutral-threat,29,29,1,NA,1,congruent,i,0,1,1,threat
a170wnufjk56wd,l,threat-neutral,30,30,1,NA,1,congruent,b,0,1,1,neutral
a170wnufjk56wd,l,neutral-neutral,31,31,1,NA,1,congruent,i,0,1,1,neutral
a170wnufjk56wd,l,neutral-neutral,32,32,1,NA,1,congruent,i,0,1,1,neutral
a170wnufjk56wd,l,neutral-neutral,33,33,1,NA,1,congruent,b,0,1,1,neutral
a170wnufjk56wd,l,neutral-threat,34,34,1,NA,1,incongruent,b,1,1,1,threat
a170wnufjk56wd,l,threat-neutral,35,35,1,NA,1,incongruent,i,0,1,1,neutral
a170wnufjk56wd,l,neutral-threat,36,36,1,NA,1,incongruent,i,0,1,1,threat
a170wnufjk56wd,l,threat-threat,37,37,1,NA,1,incongruent,b,0,1,1,threat
a170wnufjk56wd,i,threat-neutral,38,38,1,1432,1,congruent,i,1,1,1,neutral
a170wnufjk56wd,l,neutral-neutral,39,39,1,NA,1,congruent,b,0,1,1,neutral
a170wnufjk56wd,i,neutral-neutral,40,40,1,1726,1,incongruent,i,1,1,1,neutral
a170wnufjk56wd,l,neutral-neutral,41,41,1,NA,1,incongruent,i,0,1,1,neutral
a170wnufjk56wd,l,neutral-threat,42,42,1,NA,1,incongruent,b,0,1,1,threat
a170wnufjk56wd,i,threat-threat,43,43,1,NA,0,congruent,i,1,0,1,threat
a170wnufjk56wd,l,threat-neutral,44,44,1,NA,1,congruent,i,0,1,1,neutral
a170wnufjk56wd,l,neutral-threat,45,45,1,NA,1,congruent,i,0,1,1,threat
a170wnufjk56wd,l,threat-neutral,46,46,1,NA,1,congruent,i,0,1,1,neutral
a170wnufjk56wd,l,neutral-threat,47,47,1,NA,1,congruent,i,0,1,1,threat
a170wnufjk56wd,l,threat-neutral,48,48,1,NA,1,congruent,i,0,1,1,neutral
a170wnufjk56wd,l,neutral-neutral,49,49,1,NA,1,congruent,i,0,1,1,neutral
a170wnufjk56wd,l,neutral-threat,50,50,1,NA,1,congruent,i,0,1,1,threat
a170wnufjk56wd,l,threat-neutral,51,51,1,NA,1,congruent,i,0,1,1,neutral
a170wnufjk56wd,i,neutral-neutral,52,52,1,1049,1,incongruent,i,1,1,1,neutral
a170wnufjk56wd,l,neutral-neutral,53,53,1,NA,1,incongruent,i,0,1,1,neutral
a170wnufjk56wd,l,neutral-threat,54,54,1,NA,1,incongruent,i,0,1,1,threat
a170wnufjk56wd,i,threat-neutral,55,55,1,1800,1,congruent,i,1,1,1,neutral
a170wnufjk56wd,l,neutral-neutral,56,56,1,NA,1,congruent,b,0,1,1,neutral
a170wnufjk56wd,l,neutral-neutral,57,57,1,NA,1,congruent,i,0,1,1,neutral
a170wnufjk56wd,l,neutral-threat,58,58,1,NA,1,congruent,i,0,1,1,threat
a170wnufjk56wd,i,threat-neutral,59,59,1,1485,1,incongruent,i,1,1,1,neutral
a170wnufjk56wd,l,neutral-neutral,60,60,1,NA,1,incongruent,i,0,1,1,neutral
a170wnufjk56wd,l,neutral-neutral,61,61,1,NA,1,incongruent,i,0,1,1,neutral
a170wnufjk56wd,l,neutral-threat,62,62,1,NA,1,incongruent,b,0,1,1,threat
a170wnufjk56wd,l,threat-neutral,63,63,1,NA,1,incongruent,i,0,1,1,neutral
a170wnufjk56wd,i,neutral-neutral,64,64,1,1020,1,congruent,i,1,1,1,neutral
a170wnufjk56wd,l,neutral-neutral,65,65,1,NA,1,congruent,i,0,1,1,neutral
a170wnufjk56wd,l,neutral-threat,66,66,1,NA,1,congruent,i,0,1,1,threat
a170wnufjk56wd,l,threat-threat,67,67,1,NA,1,congruent,i,0,1,1,threat
a170wnufjk56wd,l,threat-neutral,68,68,1,NA,1,congruent,i,0,1,1,neutral
a170wnufjk56wd,l,neutral-neutral,69,69,1,NA,1,congruent,b,0,1,1,neutral
a170wnufjk56wd,l,neutral-threat,70,70,1,NA,1,incongruent,b,1,1,1,threat
a170wnufjk56wd,i,threat-neutral,71,71,1,NA,0,congruent,i,1,0,1,neutral
a170wnufjk56wd,l,neutral-threat,72,72,1,NA,1,congruent,i,0,1,1,threat
a170wnufjk56wd,l,threat-neutral,73,73,1,NA,1,congruent,i,0,1,1,neutral
a170wnufjk56wd,l,neutral-threat,74,74,1,NA,1,congruent,i,0,1,1,threat
a170wnufjk56wd,i,threat-threat,75,75,1,1306,1,incongruent,i,1,1,1,threat
a170wnufjk56wd,l,threat-neutral,76,76,1,NA,1,incongruent,i,0,1,1,neutral
a170wnufjk56wd,l,neutral-threat,77,77,1,NA,1,incongruent,i,0,1,1,threat
a170wnufjk56wd,l,threat-neutral,78,78,1,NA,1,incongruent,i,0,1,1,neutral
a170wnufjk56wd,i,neutral-neutral,79,79,1,1267,1,congruent,i,1,1,1,neutral
a170wnufjk56wd,l,neutral-threat,80,80,1,NA,1,congruent,i,0,1,1,threat
a170wnufjk56wd,l,threat-neutral,81,81,1,NA,1,congruent,b,0,1,1,neutral
a170wnufjk56wd,l,neutral-neutral,82,82,1,NA,1,congruent,i,0,1,1,neutral
a170wnufjk56wd,i,neutral-threat,83,83,1,1517,1,incongruent,i,1,1,1,threat
a170wnufjk56wd,l,threat-neutral,84,84,1,NA,1,incongruent,i,0,1,1,neutral
a170wnufjk56wd,l,neutral-neutral,85,85,1,NA,1,incongruent,i,0,1,1,neutral
a170wnufjk56wd,i,neutral-threat,86,86,1,1455,1,congruent,i,1,1,1,threat
a170wnufjk56wd,l,threat-neutral,87,87,1,NA,1,congruent,b,0,1,1,neutral
a170wnufjk56wd,l,neutral-threat,88,88,1,NA,1,congruent,i,0,1,1,threat
a170wnufjk56wd,l,threat-neutral,89,89,1,NA,1,congruent,b,0,1,1,neutral
a170wnufjk56wd,l,neutral-threat,90,90,1,NA,1,congruent,i,0,1,1,threat
a170wnufjk56wd,i,threat-neutral,91,91,1,1693,1,incongruent,i,1,1,1,neutral
a170wnufjk56wd,l,neutral-threat,92,92,1,NA,1,incongruent,b,0,1,1,threat
a170wnufjk56wd,l,threat-neutral,93,93,1,NA,1,incongruent,i,0,1,1,neutral
a170wnufjk56wd,l,neutral-threat,94,94,1,NA,1,incongruent,i,0,1,1,threat
a170wnufjk56wd,l,threat-neutral,95,95,1,NA,1,incongruent,i,0,1,1,neutral
a170wnufjk56wd,l,neutral-neutral,96,96,1,NA,1,incongruent,i,0,1,1,neutral
a170wnufjk56wd,l,neutral-neutral,97,97,1,NA,1,incongruent,i,0,1,1,neutral
a170wnufjk56wd,l,neutral-neutral,98,98,1,NA,1,incongruent,i,0,1,1,neutral
a170wnufjk56wd,i,neutral-neutral,99,99,1,1060,1,congruent,i,1,1,1,neutral
a170wnufjk56wd,l,neutral-neutral,100,100,1,NA,1,congruent,i,0,1,1,neutral
a170wnufjk56wd,l,neutral-threat,101,1,2,NA,1,congruent,i,0,1,1,threat
a170wnufjk56wd,l,threat-neutral,102,2,2,NA,1,congruent,i,0,1,1,neutral
a170wnufjk56wd,l,neutral-threat,103,3,2,NA,1,congruent,i,0,1,1,threat
a170wnufjk56wd,i,threat-neutral,104,4,2,1222,1,incongruent,i,1,1,1,neutral
a170wnufjk56wd,l,neutral-threat,105,5,2,NA,1,incongruent,b,0,1,1,threat
a170wnufjk56wd,l,threat-neutral,106,6,2,NA,1,incongruent,i,0,1,1,neutral
a170wnufjk56wd,i,neutral-neutral,107,7,2,NA,0,congruent,b,1,0,1,neutral
a170wnufjk56wd,l,neutral-neutral,108,8,2,NA,1,congruent,i,0,1,1,neutral
a170wnufjk56wd,l,neutral-threat,109,9,2,NA,1,congruent,i,0,1,1,threat
a170wnufjk56wd,l,threat-threat,110,10,2,NA,1,congruent,i,0,1,1,threat
a170wnufjk56wd,l,threat-neutral,111,11,2,NA,1,congruent,i,0,1,1,neutral
a170wnufjk56wd,l,neutral-threat,112,12,2,NA,1,congruent,i,0,1,1,threat
a170wnufjk56wd,i,threat-neutral,113,13,2,1327,1,incongruent,i,1,1,1,neutral
a170wnufjk56wd,l,neutral-neutral,114,14,2,NA,1,incongruent,i,0,1,1,neutral
a170wnufjk56wd,l,neutral-neutral,115,15,2,NA,1,incongruent,i,0,1,1,neutral
a170wnufjk56wd,l,neutral-neutral,116,16,2,NA,1,incongruent,i,0,1,1,neutral
a170wnufjk56wd,l,neutral-neutral,117,17,2,NA,1,incongruent,i,0,1,1,neutral
a170wnufjk56wd,i,neutral-neutral,118,18,2,989,1,congruent,i,1,1,1,neutral
a170wnufjk56wd,l,neutral-neutral,119,19,2,NA,1,congruent,b,0,1,1,neutral
a170wnufjk56wd,l,neutral-neutral,120,20,2,NA,1,congruent,i,0,1,1,neutral
a170wnufjk56wd,l,neutral-threat,121,21,2,NA,1,congruent,i,0,1,1,threat
a170wnufjk56wd,l,threat-neutral,122,22,2,NA,1,congruent,i,0,1,1,neutral
a170wnufjk56wd,l,neutral-neutral,123,23,2,NA,1,congruent,b,0,1,1,neutral
a170wnufjk56wd,l,neutral-threat,124,24,2,NA,1,congruent,i,0,1,1,threat
a170wnufjk56wd,i,threat-neutral,125,25,2,1049,1,incongruent,i,1,1,1,neutral
a170wnufjk56wd,l,neutral-neutral,126,26,2,NA,1,incongruent,i,0,1,1,neutral
a170wnufjk56wd,l,neutral-threat,127,27,2,NA,1,incongruent,i,0,1,1,threat
a170wnufjk56wd,l,threat-neutral,128,28,2,NA,1,incongruent,i,0,1,1,neutral
a170wnufjk56wd,l,neutral-threat,129,29,2,NA,1,incongruent,i,0,1,1,threat
a170wnufjk56wd,l,threat-neutral,130,30,2,NA,1,incongruent,i,0,1,1,neutral
a170wnufjk56wd,l,neutral-neutral,131,31,2,NA,1,incongruent,i,0,1,1,neutral
a170wnufjk56wd,l,neutral-threat,132,32,2,NA,1,incongruent,b,0,1,1,threat
a170wnufjk56wd,l,threat-neutral,133,33,2,NA,1,incongruent,i,0,1,1,neutral
a170wnufjk56wd,i,neutral-threat,134,34,2,1196,1,congruent,i,1,1,1,threat
a170wnufjk56wd,l,threat-neutral,135,35,2,NA,1,congruent,i,0,1,1,neutral
a170wnufjk56wd,l,neutral-neutral,136,36,2,NA,1,congruent,i,0,1,1,neutral
a170wnufjk56wd,l,neutral-threat,137,37,2,NA,1,congruent,i,0,1,1,threat
a170wnufjk56wd,i,threat-neutral,138,38,2,1572,1,incongruent,i,1,1,1,neutral
a170wnufjk56wd,l,neutral-threat,139,39,2,NA,1,incongruent,b,0,1,1,threat
a170wnufjk56wd,l,threat-neutral,140,40,2,NA,1,incongruent,i,0,1,1,neutral
a170wnufjk56wd,i,neutral-neutral,141,41,2,1196,1,congruent,i,1,1,1,neutral
a170wnufjk56wd,l,neutral-neutral,142,42,2,NA,1,congruent,i,0,1,1,neutral
a170wnufjk56wd,l,neutral-threat,143,43,2,NA,1,congruent,i,0,1,1,threat
a170wnufjk56wd,l,threat-threat,144,44,2,NA,1,congruent,i,0,1,1,threat
a170wnufjk56wd,l,threat-neutral,145,45,2,NA,1,congruent,i,0,1,1,neutral
a170wnufjk56wd,i,neutral-neutral,146,46,2,1361,1,incongruent,i,1,1,1,neutral
a170wnufjk56wd,l,neutral-threat,147,47,2,NA,1,incongruent,b,0,1,1,threat
a170wnufjk56wd,l,threat-neutral,148,48,2,NA,1,incongruent,i,0,1,1,neutral
a170wnufjk56wd,l,neutral-neutral,149,49,2,NA,1,incongruent,i,0,1,1,neutral
a170wnufjk56wd,i,neutral-neutral,150,50,2,NA,0,congruent,i,1,0,1,neutral
a170wnufjk56wd,l,neutral-neutral,151,51,2,NA,1,congruent,i,0,1,1,neutral
a170wnufjk56wd,l,neutral-threat,152,52,2,NA,1,congruent,i,0,1,1,threat
a170wnufjk56wd,i,threat-threat,153,53,2,1608,1,incongruent,i,1,1,1,threat
a170wnufjk56wd,l,threat-neutral,154,54,2,NA,1,incongruent,i,0,1,1,neutral
a170wnufjk56wd,l,neutral-neutral,155,55,2,NA,1,incongruent,i,0,1,1,neutral
a170wnufjk56wd,l,neutral-threat,156,56,2,NA,1,incongruent,b,0,1,1,threat
a170wnufjk56wd,l,threat-neutral,157,57,2,NA,1,incongruent,i,0,1,1,neutral
a170wnufjk56wd,l,neutral-neutral,158,58,2,NA,1,incongruent,i,0,1,1,neutral
a170wnufjk56wd,l,neutral-threat,159,59,2,NA,1,incongruent,b,0,1,1,threat
a170wnufjk56wd,l,threat-neutral,160,60,2,NA,1,incongruent,i,0,1,1,neutral
a170wnufjk56wd,i,neutral-threat,161,61,2,1142,1,congruent,i,1,1,1,threat
a170wnufjk56wd,l,threat-neutral,162,62,2,NA,1,congruent,i,0,1,1,neutral
a170wnufjk56wd,l,neutral-neutral,163,63,2,NA,1,congruent,b,0,1,1,neutral
a170wnufjk56wd,l,neutral-threat,164,64,2,1243,0,incongruent,b,1,1,0,threat
a170wnufjk56wd,l,threat-neutral,165,65,2,NA,1,congruent,b,1,1,1,neutral
a170wnufjk56wd,i,neutral-neutral,166,66,2,1386,1,incongruent,i,1,1,1,neutral
a170wnufjk56wd,l,neutral-threat,167,67,2,NA,1,incongruent,i,0,1,1,threat
a170wnufjk56wd,l,threat-threat,168,68,2,NA,1,incongruent,b,0,1,1,threat
a170wnufjk56wd,i,threat-neutral,169,69,2,1141,1,congruent,i,1,1,1,neutral
a170wnufjk56wd,l,neutral-neutral,170,70,2,NA,1,congruent,b,0,1,1,neutral
a170wnufjk56wd,l,neutral-threat,171,71,2,NA,1,incongruent,b,1,1,1,threat
a170wnufjk56wd,l,threat-threat,172,72,2,NA,1,incongruent,i,0,1,1,threat
a170wnufjk56wd,l,threat-neutral,173,73,2,NA,1,incongruent,i,0,1,1,neutral
a170wnufjk56wd,l,neutral-threat,174,74,2,NA,1,incongruent,i,0,1,1,threat
a170wnufjk56wd,l,threat-neutral,175,75,2,NA,1,incongruent,i,0,1,1,neutral
a170wnufjk56wd,l,neutral-neutral,176,76,2,NA,1,incongruent,i,0,1,1,neutral
a170wnufjk56wd,i,neutral-neutral,177,77,2,1171,1,congruent,i,1,1,1,neutral
a170wnufjk56wd,l,neutral-neutral,178,78,2,NA,1,congruent,b,0,1,1,neutral
a170wnufjk56wd,i,neutral-threat,179,79,2,1779,1,incongruent,i,1,1,1,threat
a170wnufjk56wd,l,threat-neutral,180,80,2,NA,1,incongruent,i,0,1,1,neutral
a170wnufjk56wd,l,neutral-neutral,181,81,2,NA,1,incongruent,i,0,1,1,neutral
a170wnufjk56wd,l,neutral-neutral,182,82,2,NA,1,incongruent,i,0,1,1,neutral
a170wnufjk56wd,l,neutral-neutral,183,83,2,NA,1,incongruent,i,0,1,1,neutral
a170wnufjk56wd,l,neutral-threat,184,84,2,NA,1,incongruent,b,0,1,1,threat
a170wnufjk56wd,l,threat-neutral,185,85,2,1469,0,congruent,b,1,1,0,neutral
a170wnufjk56wd,l,neutral-threat,186,86,2,NA,1,congruent,i,0,1,1,threat
a170wnufjk56wd,i,threat-threat,187,87,2,1426,1,incongruent,i,1,1,1,threat
a170wnufjk56wd,l,threat-threat,188,88,2,NA,1,incongruent,b,0,1,1,threat
a170wnufjk56wd,i,threat-neutral,189,89,2,1487,1,congruent,i,1,1,1,neutral
a170wnufjk56wd,l,neutral-neutral,190,90,2,NA,1,congruent,i,0,1,1,neutral
a170wnufjk56wd,i,neutral-neutral,191,91,2,1294,1,incongruent,i,1,1,1,neutral
a170wnufjk56wd,l,neutral-threat,192,92,2,NA,1,incongruent,i,0,1,1,threat
a170wnufjk56wd,l,threat-threat,193,93,2,NA,1,incongruent,b,0,1,1,threat
a170wnufjk56wd,l,threat-neutral,194,94,2,NA,1,incongruent,i,0,1,1,neutral
a170wnufjk56wd,l,neutral-neutral,195,95,2,NA,1,incongruent,i,0,1,1,neutral
a170wnufjk56wd,l,neutral-threat,196,96,2,NA,1,incongruent,i,0,1,1,threat
a170wnufjk56wd,l,threat-threat,197,97,2,NA,1,incongruent,b,0,1,1,threat
a170wnufjk56wd,i,threat-threat,198,98,2,1117,1,congruent,i,1,1,1,threat
a170wnufjk56wd,l,threat-neutral,199,99,2,NA,1,congruent,i,0,1,1,neutral
a170wnufjk56wd,l,neutral-threat,200,100,2,NA,1,congruent,i,0,1,1,threat
a3my6t1kdlazvp,l,neutral-threat,1,1,1,NA,1,incongruent,i,1,1,1,threat
a3my6t1kdlazvp,l,threat-threat,2,2,1,NA,1,incongruent,i,0,1,1,threat
a3my6t1kdlazvp,l,threat-neutral,3,3,1,NA,1,incongruent,i,0,1,1,neutral
a3my6t1kdlazvp,l,neutral-threat,4,4,1,NA,1,incongruent,i,0,1,1,threat
a3my6t1kdlazvp,l,threat-neutral,5,5,1,NA,1,incongruent,i,0,1,1,neutral
a3my6t1kdlazvp,l,neutral-neutral,6,6,1,1345,0,incongruent,i,0,1,0,neutral
a3my6t1kdlazvp,i,neutral-neutral,7,7,1,NA,0,congruent,i,1,0,1,neutral
a3my6t1kdlazvp,l,neutral-threat,8,8,1,NA,1,congruent,i,0,1,1,threat
a3my6t1kdlazvp,l,threat-threat,9,9,1,NA,1,congruent,i,0,1,1,threat
a3my6t1kdlazvp,l,threat-neutral,10,10,1,NA,1,congruent,b,0,1,1,neutral
a3my6t1kdlazvp,i,neutral-threat,11,11,1,1392,1,incongruent,i,1,1,1,threat
a3my6t1kdlazvp,l,threat-neutral,12,12,1,1824,0,incongruent,i,0,1,0,neutral
a3my6t1kdlazvp,i,neutral-neutral,13,13,1,2073,1,congruent,i,1,1,1,neutral
a3my6t1kdlazvp,l,neutral-neutral,14,14,1,NA,1,congruent,i,0,1,1,neutral
a3my6t1kdlazvp,l,neutral-threat,15,15,1,NA,1,congruent,i,0,1,1,threat
a3my6t1kdlazvp,l,threat-neutral,16,16,1,NA,1,congruent,i,0,1,1,neutral
a3my6t1kdlazvp,i,neutral-threat,17,17,1,938,1,incongruent,i,1,1,1,threat
a3my6t1kdlazvp,l,threat-neutral,18,18,1,1511,0,incongruent,b,0,1,0,neutral
a3my6t1kdlazvp,l,neutral-neutral,19,19,1,1712,0,congruent,b,1,1,0,neutral
a3my6t1kdlazvp,l,neutral-neutral,20,20,1,NA,1,congruent,i,0,1,1,neutral
a3my6t1kdlazvp,l,neutral-threat,21,21,1,NA,1,congruent,i,0,1,1,threat
a3my6t1kdlazvp,i,threat-neutral,22,22,1,1027,1,incongruent,b,1,1,1,neutral
a3my6t1kdlazvp,l,neutral-neutral,23,23,1,NA,1,incongruent,i,0,1,1,neutral
a3my6t1kdlazvp,l,neutral-threat,24,24,1,NA,1,incongruent,i,0,1,1,threat
a3my6t1kdlazvp,l,threat-neutral,25,25,1,1303,0,incongruent,i,0,1,0,neutral
a3my6t1kdlazvp,l,neutral-neutral,26,26,1,1381,0,incongruent,i,0,1,0,neutral
a3my6t1kdlazvp,i,neutral-neutral,27,27,1,1605,1,congruent,i,1,1,1,neutral
a3my6t1kdlazvp,l,neutral-threat,28,28,1,NA,1,congruent,i,0,1,1,threat
a3my6t1kdlazvp,i,threat-threat,29,29,1,1427,1,incongruent,i,1,1,1,threat
a3my6t1kdlazvp,l,threat-neutral,30,30,1,NA,1,incongruent,i,0,1,1,neutral
a3my6t1kdlazvp,l,neutral-neutral,31,31,1,NA,1,incongruent,i,0,1,1,neutral
a3my6t1kdlazvp,l,neutral-threat,32,32,1,NA,1,incongruent,i,0,1,1,threat
a3my6t1kdlazvp,l,threat-neutral,33,33,1,NA,1,incongruent,b,0,1,1,neutral
a3my6t1kdlazvp,l,neutral-threat,34,34,1,NA,1,incongruent,i,0,1,1,threat
a3my6t1kdlazvp,i,threat-neutral,35,35,1,896,1,congruent,b,1,1,1,neutral
a3my6t1kdlazvp,l,neutral-threat,36,36,1,NA,1,congruent,i,0,1,1,threat
a3my6t1kdlazvp,l,threat-threat,37,37,1,NA,1,congruent,i,0,1,1,threat
a3my6t1kdlazvp,l,threat-threat,38,38,1,NA,1,congruent,i,0,1,1,threat
a3my6t1kdlazvp,l,threat-neutral,39,39,1,NA,1,congruent,i,0,1,1,neutral
a3my6t1kdlazvp,l,neutral-threat,40,40,1,NA,1,congruent,i,0,1,1,threat
a3my6t1kdlazvp,l,threat-neutral,41,41,1,NA,1,congruent,i,0,1,1,neutral
a3my6t1kdlazvp,l,neutral-threat,42,42,1,NA,1,congruent,i,0,1,1,threat
a3my6t1kdlazvp,l,threat-neutral,43,43,1,NA,1,congruent,i,0,1,1,neutral
a3my6t1kdlazvp,l,neutral-threat,44,44,1,NA,1,congruent,i,0,1,1,threat
a3my6t1kdlazvp,l,threat-neutral,45,45,1,NA,1,congruent,i,0,1,1,neutral
a3my6t1kdlazvp,l,neutral-threat,46,46,1,NA,1,congruent,i,0,1,1,threat
a3my6t1kdlazvp,l,threat-neutral,47,47,1,NA,1,congruent,i,0,1,1,neutral
a3my6t1kdlazvp,l,neutral-threat,48,48,1,NA,1,congruent,i,0,1,1,threat
a3my6t1kdlazvp,i,threat-neutral,49,49,1,1165,1,incongruent,i,1,1,1,neutral
a3my6t1kdlazvp,l,neutral-threat,50,50,1,NA,1,incongruent,i,0,1,1,threat
a3my6t1kdlazvp,l,threat-neutral,51,51,1,NA,1,incongruent,i,0,1,1,neutral
a3my6t1kdlazvp,l,neutral-neutral,52,52,1,NA,1,incongruent,b,0,1,1,neutral
a3my6t1kdlazvp,l,neutral-neutral,53,53,1,819,0,congruent,b,1,1,0,neutral
a3my6t1kdlazvp,l,neutral-threat,54,54,1,NA,1,congruent,i,0,1,1,threat
a3my6t1kdlazvp,l,threat-neutral,55,55,1,NA,1,congruent,b,0,1,1,neutral
a3my6t1kdlazvp,l,neutral-neutral,56,56,1,NA,1,congruent,i,0,1,1,neutral
a3my6t1kdlazvp,i,neutral-neutral,57,57,1,1164,1,incongruent,i,1,1,1,neutral
a3my6t1kdlazvp,l,neutral-neutral,58,58,1,NA,1,incongruent,b,0,1,1,neutral
a3my6t1kdlazvp,i,neutral-threat,59,59,1,1551,1,congruent,i,1,1,1,threat
a3my6t1kdlazvp,l,threat-neutral,60,60,1,NA,1,congruent,b,0,1,1,neutral
a3my6t1kdlazvp,i,neutral-neutral,61,61,1,1559,1,incongruent,i,1,1,1,neutral
a3my6t1kdlazvp,l,neutral-neutral,62,62,1,NA,1,incongruent,b,0,1,1,neutral
a3my6t1kdlazvp,i,neutral-threat,63,63,1,1688,1,congruent,i,1,1,1,threat
a3my6t1kdlazvp,l,threat-neutral,64,64,1,NA,1,congruent,i,0,1,1,neutral
a3my6t1kdlazvp,l,neutral-neutral,65,65,1,NA,1,congruent,b,0,1,1,neutral
a3my6t1kdlazvp,l,neutral-neutral,66,66,1,NA,1,congruent,i,0,1,1,neutral
a3my6t1kdlazvp,l,neutral-neutral,67,67,1,NA,1,congruent,i,0,1,1,neutral
a3my6t1kdlazvp,i,neutral-threat,68,68,1,1077,1,incongruent,i,1,1,1,threat
a3my6t1kdlazvp,l,threat-neutral,69,69,1,NA,1,incongruent,i,0,1,1,neutral
a3my6t1kdlazvp,l,neutral-threat,70,70,1,NA,1,incongruent,i,0,1,1,threat
a3my6t1kdlazvp,l,threat-neutral,71,71,1,NA,1,incongruent,b,0,1,1,neutral
a3my6t1kdlazvp,l,neutral-threat,72,72,1,NA,1,incongruent,i,0,1,1,threat
a3my6t1kdlazvp,l,threat-neutral,73,73,1,NA,1,incongruent,b,0,1,1,neutral
a3my6t1kdlazvp,i,neutral-threat,74,74,1,715,1,congruent,i,1,1,1,threat
a3my6t1kdlazvp,l,threat-neutral,75,75,1,NA,1,congruent,b,0,1,1,neutral
a3my6t1kdlazvp,i,neutral-neutral,76,76,1,879,1,incongruent,i,1,1,1,neutral
a3my6t1kdlazvp,l,neutral-threat,77,77,1,NA,1,incongruent,i,0,1,1,threat
a3my6t1kdlazvp,l,threat-threat,78,78,1,NA,1,incongruent,i,0,1,1,threat
a3my6t1kdlazvp,l,threat-neutral,79,79,1,NA,1,incongruent,b,0,1,1,neutral
a3my6t1kdlazvp,l,neutral-neutral,80,80,1,NA,1,incongruent,i,0,1,1,neutral
a3my6t1kdlazvp,l,neutral-threat,81,81,1,NA,1,incongruent,i,0,1,1,threat
a3my6t1kdlazvp,l,threat-neutral,82,82,1,NA,1,incongruent,b,0,1,1,neutral
a3my6t1kdlazvp,i,neutral-neutral,83,83,1,807,1,congruent,i,1,1,1,neutral
a3my6t1kdlazvp,l,neutral-threat,84,84,1,NA,1,congruent,i,0,1,1,threat
a3my6t1kdlazvp,l,threat-threat,85,85,1,NA,1,congruent,i,0,1,1,threat
a3my6t1kdlazvp,i,threat-threat,86,86,1,897,1,incongruent,i,1,1,1,threat
a3my6t1kdlazvp,l,threat-neutral,87,87,1,NA,1,incongruent,b,0,1,1,neutral
a3my6t1kdlazvp,l,neutral-threat,88,88,1,NA,1,incongruent,i,0,1,1,threat
a3my6t1kdlazvp,l,threat-neutral,89,89,1,NA,1,incongruent,b,0,1,1,neutral
a3my6t1kdlazvp,i,neutral-neutral,90,90,1,868,1,congruent,i,1,1,1,neutral
a3my6t1kdlazvp,l,neutral-threat,91,91,1,NA,1,congruent,i,0,1,1,threat
a3my6t1kdlazvp,l,threat-neutral,92,92,1,977,0,congruent,b,0,1,0,neutral
a3my6t1kdlazvp,l,neutral-threat,93,93,1,NA,1,congruent,i,0,1,1,threat
a3my6t1kdlazvp,l,threat-neutral,94,94,1,NA,1,congruent,i,0,1,1,neutral
a3my6t1kdlazvp,l,neutral-neutral,95,95,1,NA,1,congruent,b,0,1,1,neutral
a3my6t1kdlazvp,i,neutral-threat,96,96,1,849,1,incongruent,i,1,1,1,threat
a3my6t1kdlazvp,l,threat-neutral,97,97,1,NA,1,incongruent,b,0,1,1,neutral
a3my6t1kdlazvp,l,neutral-neutral,98,98,1,NA,1,congruent,b,1,1,1,neutral
a3my6t1kdlazvp,l,neutral-neutral,99,99,1,NA,1,incongruent,b,1,1,1,neutral
a3my6t1kdlazvp,l,neutral-threat,100,100,1,NA,1,incongruent,i,0,1,1,threat
a3my6t1kdlazvp,l,threat-threat,101,1,2,NA,1,incongruent,i,0,1,1,threat
a3my6t1kdlazvp,l,threat-neutral,102,2,2,NA,1,incongruent,b,0,1,1,neutral
a3my6t1kdlazvp,l,neutral-threat,103,3,2,NA,1,incongruent,i,0,1,1,threat
a3my6t1kdlazvp,l,threat-neutral,104,4,2,NA,1,incongruent,i,0,1,1,neutral
a3my6t1kdlazvp,l,neutral-threat,105,5,2,NA,1,incongruent,i,0,1,1,threat
a3my6t1kdlazvp,l,threat-neutral,106,6,2,NA,1,incongruent,i,0,1,1,neutral
a3my6t1kdlazvp,l,neutral-neutral,107,7,2,NA,1,incongruent,b,0,1,1,neutral
a3my6t1kdlazvp,l,neutral-neutral,108,8,2,NA,1,incongruent,i,0,1,1,neutral
a3my6t1kdlazvp,i,neutral-threat,109,9,2,826,1,congruent,i,1,1,1,threat
a3my6t1kdlazvp,l,threat-neutral,110,10,2,NA,1,congruent,i,0,1,1,neutral
a3my6t1kdlazvp,l,neutral-neutral,111,11,2,NA,1,congruent,i,0,1,1,neutral
a3my6t1kdlazvp,l,neutral-neutral,112,12,2,NA,1,congruent,b,0,1,1,neutral
a3my6t1kdlazvp,l,neutral-neutral,113,13,2,NA,1,congruent,i,0,1,1,neutral
a3my6t1kdlazvp,l,neutral-threat,114,14,2,NA,1,congruent,i,0,1,1,threat
a3my6t1kdlazvp,i,threat-neutral,115,15,2,1246,1,incongruent,i,1,1,1,neutral
a3my6t1kdlazvp,l,neutral-threat,116,16,2,NA,1,incongruent,i,0,1,1,threat
a3my6t1kdlazvp,i,threat-threat,117,17,2,1029,1,congruent,i,1,1,1,threat
a3my6t1kdlazvp,l,threat-neutral,118,18,2,NA,1,congruent,i,0,1,1,neutral
a3my6t1kdlazvp,l,neutral-neutral,119,19,2,NA,1,congruent,i,0,1,1,neutral
a3my6t1kdlazvp,i,neutral-threat,120,20,2,NA,0,incongruent,i,1,0,1,threat
a3my6t1kdlazvp,l,threat-threat,121,21,2,NA,1,incongruent,i,0,1,1,threat
a3my6t1kdlazvp,l,threat-neutral,122,22,2,NA,1,incongruent,b,0,1,1,neutral
a3my6t1kdlazvp,i,neutral-neutral,123,23,2,1367,1,congruent,i,1,1,1,neutral
a3my6t1kdlazvp,l,neutral-neutral,124,24,2,NA,1,congruent,b,0,1,1,neutral
a3my6t1kdlazvp,l,neutral-threat,125,25,2,NA,1,congruent,i,0,1,1,threat
a3my6t1kdlazvp,l,threat-neutral,126,26,2,NA,1,congruent,i,0,1,1,neutral
a3my6t1kdlazvp,i,neutral-threat,127,27,2,1276,1,incongruent,i,1,1,1,threat
a3my6t1kdlazvp,l,threat-threat,128,28,2,NA,1,incongruent,i,0,1,1,threat
a3my6t1kdlazvp,l,threat-threat,129,29,2,NA,1,incongruent,i,0,1,1,threat
a3my6t1kdlazvp,l,threat-neutral,130,30,2,NA,1,incongruent,i,0,1,1,neutral
a3my6t1kdlazvp,l,neutral-neutral,131,31,2,NA,1,incongruent,b,0,1,1,neutral
a3my6t1kdlazvp,l,neutral-neutral,132,32,2,NA,1,incongruent,i,0,1,1,neutral
a3my6t1kdlazvp,i,neutral-threat,133,33,2,1824,1,congruent,i,1,1,1,threat
a3my6t1kdlazvp,l,threat-neutral,134,34,2,NA,1,congruent,b,0,1,1,neutral
a3my6t1kdlazvp,l,neutral-neutral,135,35,2,NA,1,congruent,i,0,1,1,neutral
a3my6t1kdlazvp,l,neutral-neutral,136,36,2,NA,1,congruent,b,0,1,1,neutral
a3my6t1kdlazvp,l,neutral-threat,137,37,2,NA,1,congruent,i,0,1,1,threat
a3my6t1kdlazvp,l,threat-neutral,138,38,2,NA,1,congruent,b,0,1,1,neutral
a3my6t1kdlazvp,i,neutral-threat,139,39,2,948,1,incongruent,i,1,1,1,threat
a3my6t1kdlazvp,l,threat-neutral,140,40,2,NA,1,incongruent,i,0,1,1,neutral
a3my6t1kdlazvp,l,neutral-neutral,141,41,2,NA,1,incongruent,i,0,1,1,neutral
a3my6t1kdlazvp,l,neutral-threat,142,42,2,NA,1,incongruent,i,0,1,1,threat
a3my6t1kdlazvp,i,threat-threat,143,43,2,905,1,congruent,i,1,1,1,threat
a3my6t1kdlazvp,l,threat-threat,144,44,2,NA,1,congruent,i,0,1,1,threat
a3my6t1kdlazvp,l,threat-neutral,145,45,2,NA,1,congruent,b,0,1,1,neutral
a3my6t1kdlazvp,l,neutral-threat,146,46,2,NA,1,congruent,i,0,1,1,threat
a3my6t1kdlazvp,l,threat-threat,147,47,2,NA,1,congruent,i,0,1,1,threat
a3my6t1kdlazvp,i,threat-neutral,148,48,2,1000,1,incongruent,b,1,1,1,neutral
a3my6t1kdlazvp,l,neutral-threat,149,49,2,NA,1,incongruent,i,0,1,1,threat
a3my6t1kdlazvp,l,threat-neutral,150,50,2,NA,1,incongruent,i,0,1,1,neutral
a3my6t1kdlazvp,l,neutral-threat,151,51,2,NA,1,incongruent,i,0,1,1,threat
a3my6t1kdlazvp,l,threat-threat,152,52,2,NA,1,incongruent,i,0,1,1,threat
a3my6t1kdlazvp,l,threat-neutral,153,53,2,NA,1,incongruent,i,0,1,1,neutral
a3my6t1kdlazvp,l,neutral-threat,154,54,2,NA,1,incongruent,i,0,1,1,threat
a3my6t1kdlazvp,l,threat-neutral,155,55,2,NA,1,incongruent,i,0,1,1,neutral
a3my6t1kdlazvp,i,neutral-neutral,156,56,2,758,1,congruent,i,1,1,1,neutral
a3my6t1kdlazvp,l,neutral-threat,157,57,2,NA,1,congruent,i,0,1,1,threat
a3my6t1kdlazvp,l,threat-neutral,158,58,2,NA,1,congruent,i,0,1,1,neutral
a3my6t1kdlazvp,i,neutral-threat,159,59,2,1128,1,incongruent,i,1,1,1,threat
a3my6t1kdlazvp,l,threat-threat,160,60,2,NA,1,incongruent,i,0,1,1,threat
a3my6t1kdlazvp,l,threat-threat,161,61,2,NA,1,incongruent,i,0,1,1,threat
a3my6t1kdlazvp,l,threat-neutral,162,62,2,NA,1,incongruent,b,0,1,1,neutral
a3my6t1kdlazvp,l,neutral-neutral,163,63,2,NA,1,congruent,b,1,1,1,neutral
a3my6t1kdlazvp,l,neutral-neutral,164,64,2,NA,1,congruent,i,0,1,1,neutral
a3my6t1kdlazvp,i,neutral-threat,165,65,2,1497,1,incongruent,i,1,1,1,threat
a3my6t1kdlazvp,l,threat-neutral,166,66,2,NA,1,incongruent,b,0,1,1,neutral
a3my6t1kdlazvp,l,neutral-neutral,167,67,2,NA,1,incongruent,i,0,1,1,neutral
a3my6t1kdlazvp,l,neutral-threat,168,68,2,NA,1,incongruent,i,0,1,1,threat
a3my6t1kdlazvp,l,threat-neutral,169,69,2,NA,1,incongruent,i,0,1,1,neutral
a3my6t1kdlazvp,i,neutral-threat,170,70,2,747,1,congruent,i,1,1,1,threat
a3my6t1kdlazvp,l,threat-threat,171,71,2,NA,1,congruent,i,0,1,1,threat
a3my6t1kdlazvp,l,threat-threat,172,72,2,NA,1,congruent,i,0,1,1,threat
a3my6t1kdlazvp,l,threat-neutral,173,73,2,NA,1,congruent,b,0,1,1,neutral
a3my6t1kdlazvp,i,neutral-neutral,174,74,2,847,1,incongruent,i,1,1,1,neutral
a3my6t1kdlazvp,l,neutral-threat,175,75,2,NA,1,incongruent,i,0,1,1,threat
a3my6t1kdlazvp,l,threat-threat,176,76,2,NA,1,incongruent,i,0,1,1,threat
a3my6t1kdlazvp,i,threat-threat,177,77,2,957,1,congruent,i,1,1,1,threat
a3my6t1kdlazvp,l,threat-neutral,178,78,2,NA,1,congruent,b,0,1,1,neutral
a3my6t1kdlazvp,l,neutral-neutral,179,79,2,NA,1,incongruent,b,1,1,1,neutral
a3my6t1kdlazvp,l,neutral-neutral,180,80,2,NA,1,congruent,b,1,1,1,neutral
a3my6t1kdlazvp,l,neutral-threat,181,81,2,844,0,congruent,i,0,1,0,threat
a3my6t1kdlazvp,l,threat-neutral,182,82,2,NA,1,congruent,i,0,1,1,neutral
a3my6t1kdlazvp,l,neutral-neutral,183,83,2,NA,1,congruent,b,0,1,1,neutral
a3my6t1kdlazvp,l,neutral-threat,184,84,2,NA,1,congruent,i,0,1,1,threat
a3my6t1kdlazvp,l,threat-neutral,185,85,2,NA,1,congruent,i,0,1,1,neutral
a3my6t1kdlazvp,l,neutral-threat,186,86,2,NA,1,congruent,i,0,1,1,threat
a3my6t1kdlazvp,l,threat-neutral,187,87,2,NA,1,congruent,b,0,1,1,neutral
a3my6t1kdlazvp,l,neutral-neutral,188,88,2,NA,1,congruent,i,0,1,1,neutral
a3my6t1kdlazvp,i,neutral-threat,189,89,2,972,1,incongruent,i,1,1,1,threat
a3my6t1kdlazvp,l,threat-threat,190,90,2,NA,1,incongruent,i,0,1,1,threat
a3my6t1kdlazvp,l,threat-neutral,191,91,2,NA,1,incongruent,i,0,1,1,neutral
a3my6t1kdlazvp,l,neutral-threat,192,92,2,NA,1,incongruent,i,0,1,1,threat
a3my6t1kdlazvp,i,threat-neutral,193,93,2,1153,1,congruent,i,1,1,1,neutral
a3my6t1kdlazvp,l,neutral-threat,194,94,2,NA,1,congruent,i,0,1,1,threat
a3my6t1kdlazvp,l,threat-threat,195,95,2,NA,1,congruent,i,0,1,1,threat
a3my6t1kdlazvp,l,threat-neutral,196,96,2,NA,1,congruent,b,0,1,1,neutral
a3my6t1kdlazvp,l,neutral-threat,197,97,2,NA,1,congruent,i,0,1,1,threat
a3my6t1kdlazvp,i,threat-threat,198,98,2,1214,1,incongruent,i,1,1,1,threat
a3my6t1kdlazvp,l,threat-threat,199,99,2,NA,1,incongruent,i,0,1,1,threat
a3my6t1kdlazvp,l,threat-neutral,200,100,2,NA,1,incongruent,i,0,1,1,neutral
a3hopybwsr1twr,l,neutral-neutral,1,1,1,NA,1,incongruent,i,0,1,1,neutral
a3hopybwsr1twr,l,neutral-neutral,2,2,1,NA,1,incongruent,i,0,1,1,neutral
a3hopybwsr1twr,l,neutral-neutral,3,3,1,NA,1,incongruent,i,0,1,1,neutral
a3hopybwsr1twr,l,neutral-neutral,4,4,1,NA,1,incongruent,i,0,1,1,neutral
a3hopybwsr1twr,l,neutral-threat,5,5,1,NA,1,incongruent,i,0,1,1,threat
a3hopybwsr1twr,l,threat-threat,6,6,1,NA,1,incongruent,b,0,1,1,threat
a3hopybwsr1twr,l,threat-neutral,7,7,1,NA,1,incongruent,i,0,1,1,neutral
a3hopybwsr1twr,l,neutral-threat,8,8,1,NA,1,incongruent,i,0,1,1,threat
a3hopybwsr1twr,i,threat-threat,9,9,1,1114,1,congruent,i,1,1,1,threat
a3hopybwsr1twr,l,threat-neutral,10,10,1,NA,1,congruent,i,0,1,1,neutral
a3hopybwsr1twr,i,neutral-neutral,11,11,1,1212,1,incongruent,i,1,1,1,neutral
a3hopybwsr1twr,l,neutral-threat,12,12,1,NA,1,incongruent,b,0,1,1,threat
a3hopybwsr1twr,i,threat-threat,13,13,1,1078,1,congruent,i,1,1,1,threat
a3hopybwsr1twr,l,threat-threat,14,14,1,NA,1,congruent,i,0,1,1,threat
a3hopybwsr1twr,l,threat-neutral,15,15,1,NA,1,congruent,i,0,1,1,neutral
a3hopybwsr1twr,l,neutral-threat,16,16,1,NA,1,congruent,i,0,1,1,threat
a3hopybwsr1twr,i,threat-neutral,17,17,1,1344,1,incongruent,i,1,1,1,neutral
a3hopybwsr1twr,l,neutral-threat,18,18,1,NA,1,incongruent,i,0,1,1,threat
a3hopybwsr1twr,l,threat-threat,19,19,1,NA,1,incongruent,b,0,1,1,threat
a3hopybwsr1twr,l,threat-neutral,20,20,1,NA,1,incongruent,i,0,1,1,neutral
a3hopybwsr1twr,l,neutral-threat,21,21,1,NA,1,incongruent,b,0,1,1,threat
a3hopybwsr1twr,l,threat-neutral,22,22,1,NA,1,incongruent,i,0,1,1,neutral
a3hopybwsr1twr,l,neutral-threat,23,23,1,NA,1,incongruent,i,0,1,1,threat
a3hopybwsr1twr,l,threat-neutral,24,24,1,NA,1,incongruent,i,0,1,1,neutral
a3hopybwsr1twr,l,neutral-neutral,25,25,1,NA,1,incongruent,i,0,1,1,neutral
a3hopybwsr1twr,l,neutral-neutral,26,26,1,NA,1,incongruent,i,0,1,1,neutral
a3hopybwsr1twr,l,neutral-neutral,27,27,1,NA,1,incongruent,i,0,1,1,neutral
a3hopybwsr1twr,i,neutral-neutral,28,28,1,1064,1,congruent,i,1,1,1,neutral
a3hopybwsr1twr,l,neutral-neutral,29,29,1,1564,0,congruent,b,0,1,0,neutral
a3hopybwsr1twr,i,neutral-threat,30,30,1,NA,0,incongruent,i,1,0,1,threat
a3hopybwsr1twr,l,threat-neutral,31,31,1,NA,1,incongruent,i,0,1,1,neutral
a3hopybwsr1twr,i,neutral-neutral,32,32,1,1557,1,congruent,b,1,1,1,neutral
a3hopybwsr1twr,l,neutral-threat,33,33,1,NA,1,congruent,i,0,1,1,threat
a3hopybwsr1twr,l,threat-neutral,34,34,1,NA,1,congruent,b,0,1,1,neutral
a3hopybwsr1twr,l,neutral-threat,35,35,1,1290,0,incongruent,b,1,1,0,threat
a3hopybwsr1twr,i,threat-neutral,36,36,1,NA,0,congruent,i,1,0,1,neutral
a3hopybwsr1twr,l,neutral-threat,37,37,1,1212,0,congruent,i,0,1,0,threat
a3hopybwsr1twr,l,threat-neutral,38,38,1,1521,0,congruent,i,0,1,0,neutral
a3hopybwsr1twr,l,neutral-neutral,39,39,1,NA,1,congruent,i,0,1,1,neutral
a3hopybwsr1twr,l,neutral-neutral,40,40,1,NA,1,congruent,i,0,1,1,neutral
a3hopybwsr1twr,l,neutral-neutral,41,41,1,NA,1,congruent,b,0,1,1,neutral
a3hopybwsr1twr,i,neutral-neutral,42,42,1,1177,1,incongruent,i,1,1,1,neutral
a3hopybwsr1twr,l,neutral-threat,43,43,1,NA,1,incongruent,i,0,1,1,threat
a3hopybwsr1twr,i,threat-threat,44,44,1,1223,1,congruent,i,1,1,1,threat
a3hopybwsr1twr,l,threat-neutral,45,45,1,NA,1,congruent,b,0,1,1,neutral
a3hopybwsr1twr,l,neutral-neutral,46,46,1,NA,1,congruent,i,0,1,1,neutral
a3hopybwsr1twr,l,neutral-threat,47,47,1,NA,1,congruent,i,0,1,1,threat
a3hopybwsr1twr,l,threat-neutral,48,48,1,NA,1,congruent,i,0,1,1,neutral
a3hopybwsr1twr,l,neutral-threat,49,49,1,NA,1,congruent,i,0,1,1,threat
a3hopybwsr1twr,l,threat-neutral,50,50,1,NA,1,congruent,i,0,1,1,neutral
a3hopybwsr1twr,i,neutral-threat,51,51,1,1057,1,incongruent,i,1,1,1,threat
a3hopybwsr1twr,l,threat-threat,52,52,1,NA,1,incongruent,b,0,1,1,threat
a3hopybwsr1twr,l,threat-neutral,53,53,1,NA,1,incongruent,i,0,1,1,neutral
a3hopybwsr1twr,l,neutral-threat,54,54,1,NA,1,incongruent,i,0,1,1,threat
a3hopybwsr1twr,l,threat-neutral,55,55,1,NA,1,incongruent,i,0,1,1,neutral
a3hopybwsr1twr,l,neutral-threat,56,56,1,NA,1,incongruent,i,0,1,1,threat
a3hopybwsr1twr,i,threat-threat,57,57,1,1188,1,congruent,i,1,1,1,threat
a3hopybwsr1twr,l,threat-neutral,58,58,1,NA,1,congruent,i,0,1,1,neutral
a3hopybwsr1twr,l,neutral-threat,59,59,1,NA,1,congruent,i,0,1,1,threat
a3hopybwsr1twr,l,threat-neutral,60,60,1,NA,1,congruent,i,0,1,1,neutral
a3hopybwsr1twr,l,neutral-threat,61,61,1,NA,1,congruent,i,0,1,1,threat
a3hopybwsr1twr,i,threat-neutral,62,62,1,1097,1,incongruent,i,1,1,1,neutral
a3hopybwsr1twr,l,neutral-neutral,63,63,1,NA,1,incongruent,i,0,1,1,neutral
a3hopybwsr1twr,l,neutral-neutral,64,64,1,NA,1,incongruent,i,0,1,1,neutral
a3hopybwsr1twr,l,neutral-neutral,65,65,1,NA,1,incongruent,i,0,1,1,neutral
a3hopybwsr1twr,l,neutral-threat,66,66,1,NA,1,incongruent,b,0,1,1,threat
a3hopybwsr1twr,l,threat-neutral,67,67,1,NA,1,incongruent,i,0,1,1,neutral
a3hopybwsr1twr,i,neutral-neutral,68,68,1,1109,1,congruent,i,1,1,1,neutral
a3hopybwsr1twr,l,neutral-threat,69,69,1,NA,1,congruent,i,0,1,1,threat
a3hopybwsr1twr,l,threat-neutral,70,70,1,NA,1,congruent,i,0,1,1,neutral
a3hopybwsr1twr,l,neutral-threat,71,71,1,NA,1,congruent,i,0,1,1,threat
a3hopybwsr1twr,l,threat-threat,72,72,1,NA,1,congruent,i,0,1,1,threat
a3hopybwsr1twr,l,threat-neutral,73,73,1,NA,1,congruent,b,0,1,1,neutral
a3hopybwsr1twr,l,neutral-neutral,74,74,1,NA,1,congruent,i,0,1,1,neutral
a3hopybwsr1twr,l,neutral-threat,75,75,1,NA,1,congruent,i,0,1,1,threat
a3hopybwsr1twr,i,threat-threat,76,76,1,984,1,incongruent,b,1,1,1,threat
a3hopybwsr1twr,l,threat-threat,77,77,1,NA,1,incongruent,i,0,1,1,threat
a3hopybwsr1twr,l,threat-neutral,78,78,1,NA,1,incongruent,i,0,1,1,neutral
a3hopybwsr1twr,i,neutral-neutral,79,79,1,1581,1,congruent,b,1,1,1,neutral
a3hopybwsr1twr,l,neutral-neutral,80,80,1,NA,1,congruent,i,0,1,1,neutral
a3hopybwsr1twr,l,neutral-neutral,81,81,1,NA,1,congruent,b,0,1,1,neutral
a3hopybwsr1twr,l,neutral-neutral,82,82,1,NA,1,congruent,i,0,1,1,neutral
a3hopybwsr1twr,i,neutral-threat,83,83,1,1372,1,incongruent,i,1,1,1,threat
a3hopybwsr1twr,l,threat-threat,84,84,1,NA,1,incongruent,b,0,1,1,threat
a3hopybwsr1twr,i,threat-neutral,85,85,1,1107,1,congruent,i,1,1,1,neutral
a3hopybwsr1twr,l,neutral-threat,86,86,1,NA,1,congruent,i,0,1,1,threat
a3hopybwsr1twr,l,threat-neutral,87,87,1,NA,1,congruent,i,0,1,1,neutral
a3hopybwsr1twr,l,neutral-threat,88,88,1,NA,1,congruent,i,0,1,1,threat
a3hopybwsr1twr,l,threat-neutral,89,89,1,NA,1,congruent,i,0,1,1,neutral
a3hopybwsr1twr,l,neutral-neutral,90,90,1,NA,1,congruent,i,0,1,1,neutral
a3hopybwsr1twr,l,neutral-threat,91,91,1,NA,1,congruent,i,0,1,1,threat
a3hopybwsr1twr,l,threat-neutral,92,92,1,NA,1,congruent,b,0,1,1,neutral
a3hopybwsr1twr,i,neutral-neutral,93,93,1,1042,1,incongruent,i,1,1,1,neutral
a3hopybwsr1twr,l,neutral-neutral,94,94,1,NA,1,incongruent,i,0,1,1,neutral
a3hopybwsr1twr,l,neutral-threat,95,95,1,NA,1,incongruent,i,0,1,1,threat
a3hopybwsr1twr,l,threat-neutral,96,96,1,NA,1,incongruent,i,0,1,1,neutral
a3hopybwsr1twr,l,neutral-neutral,97,97,1,NA,1,incongruent,i,0,1,1,neutral
a3hopybwsr1twr,l,neutral-threat,98,98,1,NA,1,incongruent,i,0,1,1,threat
a3hopybwsr1twr,l,threat-neutral,99,99,1,NA,1,incongruent,i,0,1,1,neutral
a3hopybwsr1twr,l,neutral-neutral,100,100,1,NA,1,incongruent,i,0,1,1,neutral
a3hopybwsr1twr,i,neutral-neutral,101,1,2,NA,0,congruent,b,1,0,1,neutral
a3hopybwsr1twr,l,neutral-neutral,102,2,2,NA,1,congruent,i,0,1,1,neutral
a3hopybwsr1twr,l,neutral-threat,103,3,2,675,0,congruent,i,0,1,0,threat
a3hopybwsr1twr,l,threat-threat,104,4,2,NA,1,congruent,i,0,1,1,threat
a3hopybwsr1twr,i,threat-neutral,105,5,2,1298,1,incongruent,i,1,1,1,neutral
a3hopybwsr1twr,l,neutral-neutral,106,6,2,NA,1,incongruent,i,0,1,1,neutral
a3hopybwsr1twr,l,neutral-threat,107,7,2,NA,1,incongruent,b,0,1,1,threat
a3hopybwsr1twr,l,threat-neutral,108,8,2,NA,1,incongruent,i,0,1,1,neutral
a3hopybwsr1twr,i,neutral-neutral,109,9,2,1266,1,congruent,b,1,1,1,neutral
a3hopybwsr1twr,l,neutral-neutral,110,10,2,NA,1,congruent,i,0,1,1,neutral
a3hopybwsr1twr,l,neutral-threat,111,11,2,NA,1,congruent,i,0,1,1,threat
a3hopybwsr1twr,i,threat-threat,112,12,2,1117,1,incongruent,b,1,1,1,threat
a3hopybwsr1twr,l,threat-neutral,113,13,2,NA,1,incongruent,i,0,1,1,neutral
a3hopybwsr1twr,l,neutral-neutral,114,14,2,NA,1,incongruent,i,0,1,1,neutral
a3hopybwsr1twr,l,neutral-threat,115,15,2,NA,1,incongruent,i,0,1,1,threat
a3hopybwsr1twr,l,threat-neutral,116,16,2,NA,1,incongruent,i,0,1,1,neutral
a3hopybwsr1twr,l,neutral-neutral,117,17,2,NA,1,incongruent,i,0,1,1,neutral
a3hopybwsr1twr,l,neutral-threat,118,18,2,NA,1,incongruent,i,0,1,1,threat
a3hopybwsr1twr,l,threat-neutral,119,19,2,NA,1,incongruent,i,0,1,1,neutral
a3hopybwsr1twr,l,neutral-neutral,120,20,2,NA,1,incongruent,i,0,1,1,neutral
a3hopybwsr1twr,i,neutral-threat,121,21,2,1125,1,congruent,i,1,1,1,threat
a3hopybwsr1twr,l,threat-neutral,122,22,2,NA,1,congruent,b,0,1,1,neutral
a3hopybwsr1twr,l,neutral-threat,123,23,2,NA,1,incongruent,b,1,1,1,threat
a3hopybwsr1twr,i,threat-threat,124,24,2,477,1,congruent,i,1,1,1,threat
a3hopybwsr1twr,l,threat-neutral,125,25,2,NA,1,congruent,i,0,1,1,neutral
a3hopybwsr1twr,l,neutral-threat,126,26,2,NA,1,congruent,i,0,1,1,threat
a3hopybwsr1twr,i,threat-threat,127,27,2,1282,1,incongruent,i,1,1,1,threat
a3hopybwsr1twr,l,threat-threat,128,28,2,NA,1,incongruent,b,0,1,1,threat
a3hopybwsr1twr,l,threat-neutral,129,29,2,1507,0,congruent,b,1,1,0,neutral
a3hopybwsr1twr,l,neutral-threat,130,30,2,NA,1,congruent,i,0,1,1,threat
a3hopybwsr1twr,i,threat-threat,131,31,2,1160,1,incongruent,i,1,1,1,threat
a3hopybwsr1twr,l,threat-neutral,132,32,2,NA,1,incongruent,i,0,1,1,neutral
a3hopybwsr1twr,l,neutral-threat,133,33,2,NA,1,incongruent,b,0,1,1,threat
a3hopybwsr1twr,l,threat-neutral,134,34,2,NA,1,incongruent,i,0,1,1,neutral
a3hopybwsr1twr,l,neutral-neutral,135,35,2,NA,1,incongruent,i,0,1,1,neutral
a3hopybwsr1twr,l,neutral-threat,136,36,2,NA,1,incongruent,b,0,1,1,threat
a3hopybwsr1twr,l,threat-neutral,137,37,2,NA,1,incongruent,i,0,1,1,neutral
a3hopybwsr1twr,l,neutral-threat,138,38,2,NA,1,incongruent,b,0,1,1,threat
a3hopybwsr1twr,l,threat-neutral,139,39,2,NA,1,incongruent,i,0,1,1,neutral
a3hopybwsr1twr,l,neutral-neutral,140,40,2,NA,1,incongruent,i,0,1,1,neutral
a3hopybwsr1twr,i,neutral-threat,141,41,2,1136,1,congruent,i,1,1,1,threat
a3hopybwsr1twr,l,threat-threat,142,42,2,NA,1,congruent,i,0,1,1,threat
a3hopybwsr1twr,l,threat-neutral,143,43,2,NA,1,congruent,i,0,1,1,neutral
a3hopybwsr1twr,l,neutral-neutral,144,44,2,NA,1,congruent,b,0,1,1,neutral
a3hopybwsr1twr,l,neutral-threat,145,45,2,NA,1,congruent,i,0,1,1,threat
a3hopybwsr1twr,l,threat-neutral,146,46,2,NA,1,congruent,i,0,1,1,neutral
a3hopybwsr1twr,i,neutral-neutral,147,47,2,1088,1,incongruent,i,1,1,1,neutral
a3hopybwsr1twr,l,neutral-neutral,148,48,2,NA,1,incongruent,i,0,1,1,neutral
a3hopybwsr1twr,i,neutral-neutral,149,49,2,1389,1,congruent,i,1,1,1,neutral
a3hopybwsr1twr,l,neutral-threat,150,50,2,NA,1,congruent,i,0,1,1,threat
a3hopybwsr1twr,l,threat-neutral,151,51,2,NA,1,congruent,i,0,1,1,neutral
a3hopybwsr1twr,l,neutral-threat,152,52,2,NA,1,congruent,i,0,1,1,threat
a3hopybwsr1twr,l,threat-neutral,153,53,2,NA,1,congruent,i,0,1,1,neutral
a3hopybwsr1twr,l,neutral-threat,154,54,2,NA,1,congruent,i,0,1,1,threat
a3hopybwsr1twr,l,threat-neutral,155,55,2,NA,1,congruent,i,0,1,1,neutral
a3hopybwsr1twr,l,neutral-threat,156,56,2,NA,1,congruent,i,0,1,1,threat
a3hopybwsr1twr,i,threat-threat,157,57,2,990,1,incongruent,b,1,1,1,threat
a3hopybwsr1twr,l,threat-neutral,158,58,2,NA,1,incongruent,i,0,1,1,neutral
a3hopybwsr1twr,l,neutral-threat,159,59,2,NA,1,incongruent,b,0,1,1,threat
a3hopybwsr1twr,l,threat-neutral,160,60,2,NA,1,incongruent,i,0,1,1,neutral
a3hopybwsr1twr,i,neutral-threat,161,61,2,1595,1,congruent,i,1,1,1,threat
a3hopybwsr1twr,l,threat-neutral,162,62,2,NA,1,congruent,b,0,1,1,neutral
a3hopybwsr1twr,l,neutral-threat,163,63,2,NA,1,congruent,i,0,1,1,threat
a3hopybwsr1twr,l,threat-neutral,164,64,2,NA,1,congruent,i,0,1,1,neutral
a3hopybwsr1twr,l,neutral-neutral,165,65,2,NA,1,congruent,b,0,1,1,neutral
a3hopybwsr1twr,l,neutral-threat,166,66,2,NA,1,congruent,i,0,1,1,threat
a3hopybwsr1twr,l,threat-neutral,167,67,2,NA,1,congruent,i,0,1,1,neutral
a3hopybwsr1twr,l,neutral-threat,168,68,2,NA,1,congruent,i,0,1,1,threat
a3hopybwsr1twr,l,threat-neutral,169,69,2,NA,1,congruent,b,0,1,1,neutral
a3hopybwsr1twr,l,neutral-neutral,170,70,2,NA,1,congruent,i,0,1,1,neutral
a3hopybwsr1twr,i,neutral-threat,171,71,2,968,1,incongruent,b,1,1,1,threat
a3hopybwsr1twr,l,threat-neutral,172,72,2,NA,1,incongruent,i,0,1,1,neutral
a3hopybwsr1twr,l,neutral-threat,173,73,2,NA,1,incongruent,i,0,1,1,threat
a3hopybwsr1twr,l,threat-threat,174,74,2,NA,1,incongruent,b,0,1,1,threat
a3hopybwsr1twr,i,threat-neutral,175,75,2,1305,1,congruent,i,1,1,1,neutral
a3hopybwsr1twr,l,neutral-neutral,176,76,2,NA,1,congruent,b,0,1,1,neutral
a3hopybwsr1twr,l,neutral-threat,177,77,2,NA,1,congruent,i,0,1,1,threat
a3hopybwsr1twr,i,threat-threat,178,78,2,1267,1,incongruent,i,1,1,1,threat
a3hopybwsr1twr,l,threat-threat,179,79,2,NA,1,incongruent,b,0,1,1,threat
a3hopybwsr1twr,l,threat-neutral,180,80,2,NA,1,incongruent,i,0,1,1,neutral
a3hopybwsr1twr,i,neutral-neutral,181,81,2,1221,1,congruent,b,1,1,1,neutral
a3hopybwsr1twr,l,neutral-threat,182,82,2,NA,1,congruent,i,0,1,1,threat
a3hopybwsr1twr,l,threat-neutral,183,83,2,NA,1,congruent,b,0,1,1,neutral
a3hopybwsr1twr,l,neutral-threat,184,84,2,1161,0,incongruent,b,1,1,0,threat
a3hopybwsr1twr,l,threat-neutral,185,85,2,NA,1,incongruent,i,0,1,1,neutral
a3hopybwsr1twr,i,neutral-neutral,186,86,2,1085,1,congruent,i,1,1,1,neutral
a3hopybwsr1twr,l,neutral-neutral,187,87,2,NA,1,congruent,b,0,1,1,neutral
a3hopybwsr1twr,l,neutral-neutral,188,88,2,NA,1,congruent,i,0,1,1,neutral
a3hopybwsr1twr,l,neutral-threat,189,89,2,NA,1,congruent,i,0,1,1,threat
a3hopybwsr1twr,l,threat-neutral,190,90,2,NA,1,congruent,i,0,1,1,neutral
a3hopybwsr1twr,l,neutral-neutral,191,91,2,NA,1,congruent,b,0,1,1,neutral
a3hopybwsr1twr,l,neutral-threat,192,92,2,953,0,incongruent,b,1,1,0,threat
a3hopybwsr1twr,l,threat-neutral,193,93,2,NA,1,incongruent,i,0,1,1,neutral
a3hopybwsr1twr,l,neutral-threat,194,94,2,NA,1,incongruent,i,0,1,1,threat
a3hopybwsr1twr,i,threat-neutral,195,95,2,1265,1,congruent,i,1,1,1,neutral
a3hopybwsr1twr,l,neutral-threat,196,96,2,NA,1,congruent,i,0,1,1,threat
a3hopybwsr1twr,i,threat-neutral,197,97,2,1219,1,incongruent,i,1,1,1,neutral
a3hopybwsr1twr,l,neutral-neutral,198,98,2,NA,1,incongruent,i,0,1,1,neutral
a3hopybwsr1twr,l,neutral-threat,199,99,2,NA,1,incongruent,b,0,1,1,threat
a3hopybwsr1twr,l,threat-neutral,200,100,2,NA,1,incongruent,i,0,1,1,neutral
aaislve5u7epm,l,threat-threat,1,1,1,NA,1,congruent,i,1,1,1,threat
aaislve5u7epm,l,threat-neutral,2,2,1,NA,1,congruent,b,0,1,1,neutral
aaislve5u7epm,l,neutral-threat,3,3,1,NA,1,congruent,i,0,1,1,threat
aaislve5u7epm,i,threat-threat,4,4,1,NA,0,incongruent,i,1,0,1,threat
aaislve5u7epm,l,threat-neutral,5,5,1,NA,1,incongruent,i,0,1,1,neutral
aaislve5u7epm,l,neutral-neutral,6,6,1,NA,1,incongruent,i,0,1,1,neutral
aaislve5u7epm,l,neutral-neutral,7,7,1,NA,1,incongruent,i,0,1,1,neutral
aaislve5u7epm,l,neutral-neutral,8,8,1,NA,1,incongruent,i,0,1,1,neutral
aaislve5u7epm,i,neutral-threat,9,9,1,1328,1,congruent,i,1,1,1,threat
aaislve5u7epm,l,threat-threat,10,10,1,NA,1,congruent,i,0,1,1,threat
aaislve5u7epm,l,threat-neutral,11,11,1,NA,1,congruent,b,0,1,1,neutral
aaislve5u7epm,l,neutral-neutral,12,12,1,NA,1,congruent,i,0,1,1,neutral
aaislve5u7epm,i,neutral-threat,13,13,1,1439,1,incongruent,i,1,1,1,threat
aaislve5u7epm,l,threat-threat,14,14,1,NA,1,incongruent,b,0,1,1,threat
aaislve5u7epm,l,threat-neutral,15,15,1,NA,1,incongruent,i,0,1,1,neutral
aaislve5u7epm,l,neutral-neutral,16,16,1,NA,1,incongruent,i,0,1,1,neutral
aaislve5u7epm,i,neutral-neutral,17,17,1,1146,1,congruent,b,1,1,1,neutral
aaislve5u7epm,l,neutral-neutral,18,18,1,NA,1,congruent,i,0,1,1,neutral
aaislve5u7epm,l,neutral-threat,19,19,1,NA,1,congruent,i,0,1,1,threat
aaislve5u7epm,l,threat-threat,20,20,1,NA,1,congruent,i,0,1,1,threat
aaislve5u7epm,l,threat-threat,21,21,1,NA,1,congruent,i,0,1,1,threat
aaislve5u7epm,l,threat-neutral,22,22,1,NA,1,congruent,i,0,1,1,neutral
aaislve5u7epm,l,neutral-neutral,23,23,1,NA,1,congruent,b,0,1,1,neutral
aaislve5u7epm,l,neutral-threat,24,24,1,1155,0,incongruent,b,1,1,0,threat
aaislve5u7epm,i,threat-threat,25,25,1,NA,0,congruent,i,1,0,1,threat
aaislve5u7epm,l,threat-threat,26,26,1,NA,1,congruent,i,0,1,1,threat
aaislve5u7epm,i,threat-neutral,27,27,1,1167,1,incongruent,i,1,1,1,neutral
aaislve5u7epm,l,neutral-threat,28,28,1,NA,1,incongruent,b,0,1,1,threat
aaislve5u7epm,l,threat-neutral,29,29,1,1106,0,congruent,b,1,1,0,neutral
aaislve5u7epm,l,neutral-threat,30,30,1,1914,0,congruent,i,0,1,0,threat
aaislve5u7epm,l,threat-neutral,31,31,1,NA,1,congruent,i,0,1,1,neutral
aaislve5u7epm,l,neutral-neutral,32,32,1,NA,1,congruent,i,0,1,1,neutral
aaislve5u7epm,l,neutral-neutral,33,33,1,NA,1,congruent,b,0,1,1,neutral
aaislve5u7epm,l,neutral-neutral,34,34,1,NA,1,congruent,i,0,1,1,neutral
aaislve5u7epm,i,neutral-neutral,35,35,1,1166,1,incongruent,i,1,1,1,neutral
aaislve5u7epm,l,neutral-threat,36,36,1,NA,1,incongruent,b,0,1,1,threat
aaislve5u7epm,l,threat-neutral,37,37,1,NA,1,incongruent,i,0,1,1,neutral
aaislve5u7epm,l,neutral-threat,38,38,1,NA,1,incongruent,i,0,1,1,threat
aaislve5u7epm,i,threat-neutral,39,39,1,1237,1,congruent,b,1,1,1,neutral
aaislve5u7epm,l,neutral-threat,40,40,1,NA,1,congruent,i,0,1,1,threat
aaislve5u7epm,l,threat-threat,41,41,1,NA,1,congruent,i,0,1,1,threat
aaislve5u7epm,l,threat-neutral,42,42,1,NA,1,congruent,i,0,1,1,neutral
aaislve5u7epm,i,neutral-neutral,43,43,1,1103,1,incongruent,i,1,1,1,neutral
aaislve5u7epm,l,neutral-threat,44,44,1,NA,1,incongruent,b,0,1,1,threat
aaislve5u7epm,i,threat-neutral,45,45,1,2751,1,congruent,i,1,1,1,neutral
aaislve5u7epm,l,neutral-threat,46,46,1,NA,1,congruent,i,0,1,1,threat
aaislve5u7epm,l,threat-threat,47,47,1,NA,1,congruent,i,0,1,1,threat
aaislve5u7epm,l,threat-threat,48,48,1,NA,1,congruent,i,0,1,1,threat
aaislve5u7epm,l,threat-threat,49,49,1,NA,1,congruent,i,0,1,1,threat
aaislve5u7epm,i,threat-threat,50,50,1,1170,1,incongruent,b,1,1,1,threat
aaislve5u7epm,l,threat-neutral,51,51,1,NA,1,incongruent,i,0,1,1,neutral
aaislve5u7epm,l,neutral-neutral,52,52,1,NA,1,incongruent,i,0,1,1,neutral
aaislve5u7epm,l,neutral-threat,53,53,1,NA,1,incongruent,b,0,1,1,threat
aaislve5u7epm,l,threat-threat,54,54,1,NA,1,incongruent,i,0,1,1,threat
aaislve5u7epm,l,threat-neutral,55,55,1,NA,1,incongruent,i,0,1,1,neutral
aaislve5u7epm,l,neutral-neutral,56,56,1,NA,1,incongruent,i,0,1,1,neutral
aaislve5u7epm,l,neutral-threat,57,57,1,NA,1,incongruent,i,0,1,1,threat
aaislve5u7epm,l,threat-neutral,58,58,1,NA,1,incongruent,i,0,1,1,neutral
aaislve5u7epm,l,neutral-neutral,59,59,1,NA,1,incongruent,i,0,1,1,neutral
aaislve5u7epm,i,neutral-neutral,60,60,1,930,1,congruent,b,1,1,1,neutral
aaislve5u7epm,l,neutral-neutral,61,61,1,NA,1,congruent,i,0,1,1,neutral
aaislve5u7epm,l,neutral-neutral,62,62,1,NA,1,congruent,b,0,1,1,neutral
aaislve5u7epm,l,neutral-threat,63,63,1,NA,1,congruent,i,0,1,1,threat
aaislve5u7epm,l,threat-threat,64,64,1,NA,1,congruent,i,0,1,1,threat
aaislve5u7epm,l,threat-neutral,65,65,1,NA,1,congruent,i,0,1,1,neutral
aaislve5u7epm,l,neutral-threat,66,66,1,NA,1,congruent,i,0,1,1,threat
aaislve5u7epm,l,threat-neutral,67,67,1,NA,1,congruent,i,0,1,1,neutral
aaislve5u7epm,l,neutral-neutral,68,68,1,NA,1,congruent,b,0,1,1,neutral
aaislve5u7epm,l,neutral-neutral,69,69,1,NA,1,congruent,i,0,1,1,neutral
aaislve5u7epm,i,neutral-neutral,70,70,1,977,1,incongruent,i,1,1,1,neutral
aaislve5u7epm,l,neutral-neutral,71,71,1,NA,1,incongruent,i,0,1,1,neutral
aaislve5u7epm,i,neutral-neutral,72,72,1,929,1,congruent,b,1,1,1,neutral
aaislve5u7epm,l,neutral-threat,73,73,1,NA,1,congruent,i,0,1,1,threat
aaislve5u7epm,l,threat-neutral,74,74,1,1121,0,congruent,b,0,1,0,neutral
aaislve5u7epm,l,neutral-neutral,75,75,1,NA,1,congruent,i,0,1,1,neutral
aaislve5u7epm,i,neutral-threat,76,76,1,1290,1,incongruent,b,1,1,1,threat
aaislve5u7epm,l,threat-neutral,77,77,1,NA,1,incongruent,i,0,1,1,neutral
aaislve5u7epm,i,neutral-neutral,78,78,1,NA,0,congruent,i,1,0,1,neutral
aaislve5u7epm,l,neutral-threat,79,79,1,NA,1,congruent,i,0,1,1,threat
aaislve5u7epm,l,threat-neutral,80,80,1,NA,1,congruent,i,0,1,1,neutral
aaislve5u7epm,l,neutral-threat,81,81,1,NA,1,congruent,i,0,1,1,threat
aaislve5u7epm,l,threat-neutral,82,82,1,NA,1,congruent,b,0,1,1,neutral
aaislve5u7epm,l,neutral-threat,83,83,1,NA,1,congruent,i,0,1,1,threat
aaislve5u7epm,l,threat-neutral,84,84,1,NA,1,congruent,b,0,1,1,neutral
aaislve5u7epm,l,neutral-neutral,85,85,1,NA,1,congruent,i,0,1,1,neutral
aaislve5u7epm,i,neutral-neutral,86,86,1,873,1,incongruent,i,1,1,1,neutral
aaislve5u7epm,l,neutral-threat,87,87,1,NA,1,incongruent,b,0,1,1,threat
aaislve5u7epm,l,threat-neutral,88,88,1,NA,1,incongruent,i,0,1,1,neutral
aaislve5u7epm,l,neutral-threat,89,89,1,NA,1,incongruent,b,0,1,1,threat
aaislve5u7epm,l,threat-neutral,90,90,1,1184,0,congruent,b,1,1,0,neutral
aaislve5u7epm,l,neutral-neutral,91,91,1,NA,1,congruent,i,0,1,1,neutral
aaislve5u7epm,i,neutral-neutral,92,92,1,971,1,incongruent,i,1,1,1,neutral
aaislve5u7epm,l,neutral-threat,93,93,1,NA,1,incongruent,b,0,1,1,threat
aaislve5u7epm,i,threat-threat,94,94,1,975,1,congruent,i,1,1,1,threat
aaislve5u7epm,l,threat-neutral,95,95,1,1081,0,congruent,i,0,1,0,neutral
aaislve5u7epm,l,neutral-neutral,96,96,1,NA,1,congruent,b,0,1,1,neutral
aaislve5u7epm,l,neutral-threat,97,97,1,NA,1,congruent,i,0,1,1,threat
aaislve5u7epm,l,threat-neutral,98,98,1,NA,1,congruent,i,0,1,1,neutral
aaislve5u7epm,l,neutral-neutral,99,99,1,NA,1,congruent,i,0,1,1,neutral
aaislve5u7epm,l,neutral-neutral,100,100,1,NA,1,congruent,i,0,1,1,neutral
aaislve5u7epm,i,neutral-threat,101,1,2,NA,0,incongruent,i,1,0,1,threat
aaislve5u7epm,l,threat-neutral,102,2,2,NA,1,incongruent,i,0,1,1,neutral
aaislve5u7epm,l,neutral-threat,103,3,2,NA,1,incongruent,b,0,1,1,threat
aaislve5u7epm,l,threat-neutral,104,4,2,1208,0,congruent,b,1,1,0,neutral
aaislve5u7epm,i,neutral-threat,105,5,2,1757,1,incongruent,i,1,1,1,threat
aaislve5u7epm,l,threat-neutral,106,6,2,NA,1,incongruent,i,0,1,1,neutral
aaislve5u7epm,i,neutral-neutral,107,7,2,1419,1,congruent,i,1,1,1,neutral
aaislve5u7epm,l,neutral-neutral,108,8,2,NA,1,congruent,i,0,1,1,neutral
aaislve5u7epm,l,neutral-neutral,109,9,2,NA,1,congruent,i,0,1,1,neutral
aaislve5u7epm,l,neutral-threat,110,10,2,NA,1,congruent,i,0,1,1,threat
aaislve5u7epm,l,threat-threat,111,11,2,NA,1,congruent,i,0,1,1,threat
aaislve5u7epm,l,threat-neutral,112,12,2,NA,1,congruent,i,0,1,1,neutral
aaislve5u7epm,l,neutral-threat,113,13,2,NA,1,congruent,i,0,1,1,threat
aaislve5u7epm,l,threat-threat,114,14,2,NA,1,congruent,i,0,1,1,threat
aaislve5u7epm,i,threat-threat,115,15,2,1155,1,incongruent,b,1,1,1,threat
aaislve5u7epm,l,threat-threat,116,16,2,NA,1,incongruent,i,0,1,1,threat
aaislve5u7epm,l,threat-neutral,117,17,2,NA,1,incongruent,i,0,1,1,neutral
aaislve5u7epm,i,neutral-neutral,118,18,2,1041,1,congruent,b,1,1,1,neutral
aaislve5u7epm,l,neutral-threat,119,19,2,NA,1,congruent,i,0,1,1,threat
aaislve5u7epm,l,threat-neutral,120,20,2,NA,1,congruent,i,0,1,1,neutral
aaislve5u7epm,l,neutral-neutral,121,21,2,NA,1,congruent,i,0,1,1,neutral
aaislve5u7epm,l,neutral-threat,122,22,2,NA,1,congruent,i,0,1,1,threat
aaislve5u7epm,i,threat-neutral,123,23,2,920,1,incongruent,i,1,1,1,neutral
aaislve5u7epm,l,neutral-neutral,124,24,2,NA,1,incongruent,i,0,1,1,neutral
aaislve5u7epm,i,neutral-neutral,125,25,2,1025,1,congruent,i,1,1,1,neutral
aaislve5u7epm,l,neutral-threat,126,26,2,NA,1,congruent,i,0,1,1,threat
aaislve5u7epm,l,threat-neutral,127,27,2,NA,1,congruent,i,0,1,1,neutral
aaislve5u7epm,l,neutral-neutral,128,28,2,NA,1,congruent,b,0,1,1,neutral
aaislve5u7epm,l,neutral-threat,129,29,2,NA,1,congruent,i,0,1,1,threat
aaislve5u7epm,l,threat-threat,130,30,2,NA,1,congruent,i,0,1,1,threat
aaislve5u7epm,l,threat-threat,131,31,2,NA,1,congruent,i,0,1,1,threat
aaislve5u7epm,l,threat-neutral,132,32,2,NA,1,congruent,i,0,1,1,neutral
aaislve5u7epm,l,neutral-threat,133,33,2,NA,1,congruent,i,0,1,1,threat
aaislve5u7epm,l,threat-neutral,134,34,2,NA,1,congruent,i,0,1,1,neutral
aaislve5u7epm,l,neutral-neutral,135,35,2,NA,1,congruent,b,0,1,1,neutral
aaislve5u7epm,i,neutral-neutral,136,36,2,881,1,incongruent,i,1,1,1,neutral
aaislve5u7epm,l,neutral-threat,137,37,2,NA,1,incongruent,i,0,1,1,threat
aaislve5u7epm,i,threat-threat,138,38,2,928,1,congruent,i,1,1,1,threat
aaislve5u7epm,l,threat-threat,139,39,2,NA,1,congruent,i,0,1,1,threat
aaislve5u7epm,l,threat-threat,140,40,2,NA,1,congruent,i,0,1,1,threat
aaislve5u7epm,l,threat-neutral,141,41,2,NA,1,congruent,b,0,1,1,neutral
aaislve5u7epm,l,neutral-threat,142,42,2,NA,1,congruent,i,0,1,1,threat
aaislve5u7epm,l,threat-neutral,143,43,2,NA,1,congruent,i,0,1,1,neutral
aaislve5u7epm,l,neutral-threat,144,44,2,NA,1,congruent,i,0,1,1,threat
aaislve5u7epm,i,threat-threat,145,45,2,1033,1,incongruent,i,1,1,1,threat
aaislve5u7epm,l,threat-threat,146,46,2,NA,1,incongruent,b,0,1,1,threat
aaislve5u7epm,i,threat-neutral,147,47,2,1003,1,congruent,i,1,1,1,neutral
aaislve5u7epm,l,neutral-threat,148,48,2,NA,1,congruent,i,0,1,1,threat
aaislve5u7epm,l,threat-neutral,149,49,2,NA,1,congruent,b,0,1,1,neutral
aaislve5u7epm,l,neutral-threat,150,50,2,1117,0,incongruent,b,1,1,0,threat
aaislve5u7epm,i,threat-threat,151,51,2,NA,0,congruent,i,1,0,1,threat
aaislve5u7epm,l,threat-neutral,152,52,2,NA,1,congruent,b,0,1,1,neutral
aaislve5u7epm,l,neutral-threat,153,53,2,1347,0,incongruent,b,1,1,0,threat
aaislve5u7epm,l,threat-neutral,154,54,2,1100,0,incongruent,i,0,1,0,neutral
aaislve5u7epm,i,neutral-threat,155,55,2,1214,1,congruent,i,1,1,1,threat
aaislve5u7epm,l,threat-neutral,156,56,2,NA,1,congruent,b,0,1,1,neutral
aaislve5u7epm,l,neutral-neutral,157,57,2,NA,1,congruent,i,0,1,1,neutral
aaislve5u7epm,l,neutral-threat,158,58,2,NA,1,congruent,i,0,1,1,threat
aaislve5u7epm,l,threat-neutral,159,59,2,NA,1,congruent,i,0,1,1,neutral
aaislve5u7epm,l,neutral-neutral,160,60,2,NA,1,congruent,b,0,1,1,neutral
aaislve5u7epm,l,neutral-neutral,161,61,2,NA,1,congruent,i,0,1,1,neutral
aaislve5u7epm,l,neutral-threat,162,62,2,NA,1,congruent,i,0,1,1,threat
aaislve5u7epm,l,threat-neutral,163,63,2,NA,1,congruent,i,0,1,1,neutral
aaislve5u7epm,i,neutral-neutral,164,64,2,884,1,incongruent,i,1,1,1,neutral
aaislve5u7epm,l,neutral-threat,165,65,2,NA,1,incongruent,i,0,1,1,threat
aaislve5u7epm,l,threat-threat,166,66,2,NA,1,incongruent,b,0,1,1,threat
aaislve5u7epm,l,threat-neutral,167,67,2,NA,1,incongruent,i,0,1,1,neutral
aaislve5u7epm,l,neutral-threat,168,68,2,NA,1,incongruent,i,0,1,1,threat
aaislve5u7epm,l,threat-threat,169,69,2,NA,1,incongruent,b,0,1,1,threat
aaislve5u7epm,l,threat-neutral,170,70,2,999,0,congruent,b,1,1,0,neutral
aaislve5u7epm,l,neutral-threat,171,71,2,NA,1,incongruent,b,1,1,1,threat
aaislve5u7epm,l,threat-neutral,172,72,2,1499,0,congruent,b,1,1,0,neutral
aaislve5u7epm,l,neutral-threat,173,73,2,NA,1,incongruent,b,1,1,1,threat
aaislve5u7epm,i,threat-threat,174,74,2,1187,1,congruent,i,1,1,1,threat
aaislve5u7epm,l,threat-threat,175,75,2,NA,1,congruent,i,0,1,1,threat
aaislve5u7epm,i,threat-neutral,176,76,2,1128,1,incongruent,i,1,1,1,neutral
