subject,trialCount,RT,acc,partResp,chosenNode,chosenImageFile,chosenCommunityNumber,chosenThreatStatus,option1CommunityNumber,option1ThreatStatus,option2CommunityNumber,option2ThreatStatus,option3CommunityNumber,option3ThreatStatus
a2ctbahecdqsix,1,3393,1,1,Node10,picture4.jpg,2,threat,2,threat,1,neutral,1,threat
a2ctbahecdqsix,2,4592,1,3,Node2,picture7.jpg,1,neutral,2,neutral,2,neutral,1,neutral
a2ctbahecdqsix,3,2220,1,3,Node8,picture5.jpg,2,neutral,1,neutral,1,threat,2,neutral
a2ctbahecdqsix,4,3639,1,3,Node10,picture4.jpg,2,threat,1,threat,1,neutral,2,threat
a2ctbahecdqsix,5,7169,1,2,Node3,picture3.jpg,1,neutral,2,neutral,1,neutral,2,neutral
a2ctbahecdqsix,6,3349,1,2,Node10,picture4.jpg,2,threat,1,neutral,2,threat,1,threat
a2ctbahecdqsix,7,7456,1,2,Node8,picture5.jpg,2,neutral,1,neutral,2,neutral,1,threat
a2ctbahecdqsix,8,11239,1,3,Node4,picture3.jpg,1,threat,2,neutral,2,neutral,1,threat
a2ctbahecdqsix,9,8439,1,2,Node3,picture3.jpg,1,neutral,2,neutral,1,neutral,2,neutral
a2ctbahecdqsix,10,4343,1,2,Node10,picture4.jpg,2,threat,1,threat,2,threat,1,neutral
a2ctbahecdqsix,11,9343,1,2,Node9,picture4.jpg,2,neutral,1,threat,2,neutral,1,neutral
a2ctbahecdqsix,12,4680,1,3,Node6,picture9.jpg,2,neutral,1,threat,1,neutral,2,neutral
a2ctbahecdqsix,13,2212,0,2,Node9,picture4.jpg,2,neutral,2,neutral,2,neutral,1,threat
a2ctbahecdqsix,14,5226,1,3,Node3,picture3.jpg,1,neutral,2,neutral,2,neutral,1,neutral
a2ctbahecdqsix,15,1983,1,2,Node6,picture9.jpg,2,neutral,1,threat,2,neutral,1,neutral
a2ctbahecdqsix,16,2815,1,3,Node1,picture2.jpg,1,threat,2,neutral,2,neutral,1,threat
a2ctbahecdqsix,17,4593,1,3,Node10,picture4.jpg,2,threat,1,neutral,1,threat,2,threat
a2ctbahecdqsix,18,2351,1,2,Node2,picture7.jpg,1,neutral,2,neutral,1,neutral,2,neutral
a2ctbahecdqsix,19,3408,1,3,Node9,picture4.jpg,2,neutral,1,threat,1,neutral,2,neutral
a2ctbahecdqsix,20,2471,1,1,Node10,picture4.jpg,2,threat,2,threat,1,threat,1,neutral
a2ctbahecdqsix,21,4521,1,3,Node9,picture4.jpg,2,neutral,1,neutral,1,threat,2,neutral
a2ctbahecdqsix,22,13968,1,1,Node6,picture9.jpg,2,neutral,2,neutral,1,threat,1,neutral
a2ctbahecdqsix,23,3119,1,2,Node8,picture5.jpg,2,neutral,1,threat,2,neutral,1,neutral
a2ctbahecdqsix,24,7576,1,2,Node4,picture3.jpg,1,threat,2,neutral,1,threat,2,neutral
a2ctbahecdqsix,25,4416,1,3,Node3,picture3.jpg,1,neutral,2,neutral,2,neutral,1,neutral
a2ctbahecdqsix,26,6126,1,1,Node4,picture3.jpg,1,threat,1,threat,2,neutral,2,neutral
a2ctbahecdqsix,27,4448,1,1,Node8,picture5.jpg,2,neutral,2,neutral,1,threat,1,neutral
a2ctbahecdqsix,28,5448,1,2,Node4,picture3.jpg,1,threat,2,neutral,1,threat,2,neutral
a2ctbahecdqsix,29,2073,1,1,Node3,picture3.jpg,1,neutral,1,neutral,2,neutral,2,neutral
a2ctbahecdqsix,30,2967,1,2,Node1,picture2.jpg,1,threat,2,neutral,1,threat,2,neutral
a2ctbahecdqsix,31,1744,1,1,Node3,picture3.jpg,1,neutral,1,neutral,2,neutral,2,neutral
a2ctbahecdqsix,32,2456,1,2,Node1,picture2.jpg,1,threat,2,neutral,1,threat,2,neutral
a2ctbahecdqsix,33,8104,1,3,Node2,picture7.jpg,1,neutral,2,neutral,2,neutral,1,neutral
a2ctbahecdqsix,34,15024,1,1,Node8,picture5.jpg,2,neutral,2,neutral,1,neutral,1,threat
a2ctbahecdqsix,35,2591,1,1,Node4,picture3.jpg,1,threat,1,threat,2,neutral,2,neutral
a2ctbahecdqsix,36,4592,0,2,Node9,picture4.jpg,2,neutral,1,threat,2,neutral,2,neutral
a2ctbahecdqsix,37,6671,1,3,Node6,picture9.jpg,2,neutral,1,neutral,1,threat,2,neutral
a2ctbahecdqsix,38,5081,1,2,Node9,picture4.jpg,2,neutral,1,neutral,2,neutral,1,threat
a2ctbahecdqsix,39,4439,1,1,Node2,picture7.jpg,1,neutral,1,neutral,2,neutral,2,neutral
a2ctbahecdqsix,40,3368,0,3,Node9,picture4.jpg,2,neutral,1,threat,2,neutral,2,neutral
a2ctbahecdqsix,41,3305,1,1,Node6,picture9.jpg,2,neutral,2,neutral,1,neutral,1,threat
a2ctbahecdqsix,42,3799,1,3,Node8,picture5.jpg,2,neutral,1,threat,1,neutral,2,neutral
a2ctbahecdqsix,43,3561,1,2,Node6,picture9.jpg,2,neutral,1,neutral,2,neutral,1,threat
a2ctbahecdqsix,44,4304,1,1,Node9,picture4.jpg,2,neutral,2,neutral,1,threat,1,neutral
a2ctbahecdqsix,45,2004,1,1,Node2,picture7.jpg,1,neutral,1,neutral,2,neutral,2,neutral
a2ctbahecdqsix,46,3087,1,3,Node4,picture3.jpg,1,threat,2,neutral,2,neutral,1,threat
a2ctbahecdqsix,47,2345,1,1,Node9,picture4.jpg,2,neutral,2,neutral,1,neutral,1,threat
a2ctbahecdqsix,48,1710,1,2,Node2,picture7.jpg,1,neutral,2,neutral,1,neutral,2,neutral
a178bxd4ubx932,1,3399,1,2,Node2,picture4.jpg,1,neutral,2,neutral,1,neutral,2,threat
a178bxd4ubx932,2,6674,1,1,Node1,picture10.jpg,1,neutral,1,neutral,2,threat,2,neutral
a178bxd4ubx932,3,4076,1,3,Node8,picture1.jpg,2,threat,1,threat,1,threat,2,threat
a178bxd4ubx932,4,7224,0,3,Node4,picture3.jpg,1,threat,1,threat,2,neutral,1,threat
a178bxd4ubx932,5,5289,1,1,Node8,picture1.jpg,2,threat,2,threat,1,threat,1,threat
a178bxd4ubx932,6,7825,1,1,Node10,picture4.jpg,2,threat,2,threat,1,threat,1,neutral
a178bxd4ubx932,7,8948,1,1,Node2,picture4.jpg,1,neutral,1,neutral,2,neutral,2,threat
a178bxd4ubx932,8,4987,1,1,Node1,picture10.jpg,1,neutral,1,neutral,2,neutral,2,threat
a178bxd4ubx932,9,4632,1,3,Node3,picture2.jpg,1,threat,2,neutral,2,threat,1,threat
a178bxd4ubx932,10,3137,1,1,Node6,picture3.jpg,2,neutral,2,neutral,1,neutral,1,neutral
a178bxd4ubx932,11,11033,1,1,Node8,picture1.jpg,2,threat,2,threat,1,threat,1,threat
a178bxd4ubx932,12,9288,1,1,Node10,picture4.jpg,2,threat,2,threat,1,neutral,1,threat
a178bxd4ubx932,13,10951,0,3,Node8,picture1.jpg,2,threat,2,neutral,1,threat,2,threat
a178bxd4ubx932,14,10859,1,3,Node3,picture2.jpg,1,threat,2,threat,2,neutral,1,threat
a178bxd4ubx932,15,8021,1,3,Node2,picture4.jpg,1,neutral,2,neutral,2,threat,1,neutral
a178bxd4ubx932,16,13334,1,2,Node4,picture3.jpg,1,threat,2,threat,1,threat,2,neutral
a178bxd4ubx932,17,8462,1,3,Node10,picture4.jpg,2,threat,1,threat,1,neutral,2,threat
a178bxd4ubx932,18,7161,1,1,Node9,picture1.jpg,2,neutral,2,neutral,1,threat,1,threat
a178bxd4ubx932,19,6308,1,3,Node4,picture3.jpg,1,threat,2,threat,2,neutral,1,threat
a178bxd4ubx932,20,4229,1,3,Node1,picture10.jpg,1,neutral,2,neutral,2,threat,1,neutral
a178bxd4ubx932,21,15681,1,2,Node3,picture2.jpg,1,threat,2,neutral,1,threat,2,threat
a178bxd4ubx932,22,3353,1,3,Node2,picture4.jpg,1,neutral,2,threat,2,neutral,1,neutral
a178bxd4ubx932,23,3461,1,1,Node4,picture3.jpg,1,threat,1,threat,2,neutral,2,threat
a178bxd4ubx932,24,4114,1,2,Node10,picture4.jpg,2,threat,1,neutral,2,threat,1,threat
a178bxd4ubx932,25,2968,1,3,Node6,picture3.jpg,2,neutral,1,neutral,1,neutral,2,neutral
a178bxd4ubx932,26,6354,1,1,Node2,picture4.jpg,1,neutral,1,neutral,2,threat,2,neutral
a178bxd4ubx932,27,5623,0,1,Node3,picture2.jpg,1,threat,1,threat,1,threat,2,threat
a178bxd4ubx932,28,3679,1,3,Node9,picture1.jpg,2,neutral,1,threat,1,threat,2,neutral
a178bxd4ubx932,29,4528,1,3,Node6,picture3.jpg,2,neutral,1,neutral,1,neutral,2,neutral
a178bxd4ubx932,30,4834,1,2,Node2,picture4.jpg,1,neutral,2,threat,1,neutral,2,neutral
a178bxd4ubx932,31,6993,1,1,Node9,picture1.jpg,2,neutral,2,neutral,1,threat,1,threat
a178bxd4ubx932,32,7248,1,3,Node1,picture10.jpg,1,neutral,2,threat,2,neutral,1,neutral
a178bxd4ubx932,33,11721,1,2,Node10,picture4.jpg,2,threat,1,threat,2,threat,1,neutral
a178bxd4ubx932,34,4913,1,2,Node9,picture1.jpg,2,neutral,1,threat,2,neutral,1,threat
a178bxd4ubx932,35,4482,1,2,Node6,picture3.jpg,2,neutral,1,neutral,2,neutral,1,neutral
a178bxd4ubx932,36,3593,1,2,Node8,picture1.jpg,2,threat,1,threat,2,threat,1,threat
a178bxd4ubx932,37,2227,1,3,Node9,picture1.jpg,2,neutral,1,threat,1,threat,2,neutral
a178bxd4ubx932,38,4011,1,1,Node4,picture3.jpg,1,threat,1,threat,2,threat,2,neutral
a178bxd4ubx932,39,9973,1,2,Node1,picture10.jpg,1,neutral,2,neutral,1,neutral,2,threat
a178bxd4ubx932,40,6943,1,1,Node3,picture2.jpg,1,threat,1,threat,2,neutral,2,threat
a178bxd4ubx932,41,13253,1,1,Node6,picture3.jpg,2,neutral,2,neutral,1,neutral,1,neutral
a178bxd4ubx932,42,6242,0,3,Node4,picture3.jpg,1,threat,1,threat,2,threat,1,threat
a178bxd4ubx932,43,5209,1,3,Node10,picture4.jpg,2,threat,1,neutral,1,threat,2,threat
a178bxd4ubx932,44,7813,1,1,Node3,picture2.jpg,1,threat,1,threat,2,threat,2,neutral
a178bxd4ubx932,45,5060,1,2,Node6,picture3.jpg,2,neutral,1,neutral,2,neutral,1,neutral
a178bxd4ubx932,46,8892,0,1,Node8,picture1.jpg,2,threat,2,threat,1,threat,2,neutral
a178bxd4ubx932,47,4582,1,3,Node4,picture3.jpg,1,threat,2,neutral,2,threat,1,threat
a178bxd4ubx932,48,10495,0,1,Node10,picture4.jpg,2,threat,2,threat,1,neutral,2,neutral
a2tbkohgx08vrk,1,3967,1,2,Node2,picture4.jpg,1,neutral,2,threat,1,neutral,2,neutral
a2tbkohgx08vrk,2,2136,0,3,Node8,picture7.jpg,2,neutral,2,neutral,1,threat,2,neutral
a2tbkohgx08vrk,3,1487,0,2,Node8,picture7.jpg,2,neutral,1,neutral,2,neutral,2,neutral
a2tbkohgx08vrk,4,1643,0,1,Node1,picture3.jpg,1,threat,1,threat,1,neutral,2,threat
a2tbkohgx08vrk,5,1238,0,2,Node1,picture3.jpg,1,threat,2,neutral,1,threat,1,threat
a2tbkohgx08vrk,6,1286,0,3,Node2,picture4.jpg,1,neutral,1,threat,2,neutral,1,neutral
a2tbkohgx08vrk,7,1864,1,1,Node1,picture3.jpg,1,threat,1,threat,2,neutral,2,neutral
a2tbkohgx08vrk,8,822,1,2,Node8,picture7.jpg,2,neutral,1,neutral,2,neutral,1,threat
a2tbkohgx08vrk,9,1287,0,3,Node2,picture4.jpg,1,neutral,2,neutral,1,threat,1,neutral
a2tbkohgx08vrk,10,1050,0,2,Node2,picture4.jpg,1,neutral,2,threat,1,neutral,1,threat
a2tbkohgx08vrk,11,1123,0,1,Node3,picture4.jpg,1,threat,1,threat,1,threat,2,neutral
a2tbkohgx08vrk,12,1081,0,3,Node3,picture4.jpg,1,threat,1,neutral,2,neutral,1,threat
a2tbkohgx08vrk,13,2058,1,2,Node10,picture1.jpg,2,neutral,1,threat,2,neutral,1,threat
a2tbkohgx08vrk,14,1430,1,1,Node8,picture7.jpg,2,neutral,2,neutral,1,neutral,1,threat
a2tbkohgx08vrk,15,1384,0,2,Node10,picture1.jpg,2,neutral,1,threat,2,neutral,2,threat
a2tbkohgx08vrk,16,1550,1,1,Node9,picture1.jpg,2,threat,2,threat,1,threat,1,neutral
a2tbkohgx08vrk,17,1620,1,1,Node4,picture5.jpg,1,neutral,1,neutral,2,neutral,2,neutral
a2tbkohgx08vrk,18,1626,1,3,Node6,picture6.jpg,2,neutral,1,threat,1,neutral,2,neutral
a2tbkohgx08vrk,19,1607,0,3,Node10,picture1.jpg,2,neutral,1,threat,2,neutral,2,neutral
a2tbkohgx08vrk,20,1848,1,3,Node3,picture4.jpg,1,threat,2,neutral,2,threat,1,threat
a2tbkohgx08vrk,21,1709,0,1,Node8,picture7.jpg,2,neutral,2,neutral,1,neutral,2,neutral
a2tbkohgx08vrk,22,1105,0,2,Node10,picture1.jpg,2,neutral,2,threat,2,neutral,1,threat
a2tbkohgx08vrk,23,1883,0,1,Node1,picture3.jpg,1,threat,1,threat,2,threat,1,neutral
a2tbkohgx08vrk,24,1381,1,3,Node8,picture7.jpg,2,neutral,1,neutral,1,threat,2,neutral
a2tbkohgx08vrk,25,1436,0,3,Node10,picture1.jpg,2,neutral,1,threat,2,threat,2,neutral
a2tbkohgx08vrk,26,1814,1,3,Node1,picture3.jpg,1,threat,2,neutral,2,neutral,1,threat
a2tbkohgx08vrk,27,1812,1,2,Node3,picture4.jpg,1,threat,2,threat,1,threat,2,neutral
a2tbkohgx08vrk,28,1618,1,1,Node2,picture4.jpg,1,neutral,1,neutral,2,neutral,2,threat
a2tbkohgx08vrk,29,1146,0,2,Node8,picture7.jpg,2,neutral,2,neutral,2,neutral,1,neutral
a2tbkohgx08vrk,30,1066,0,2,Node3,picture4.jpg,1,threat,2,neutral,1,threat,1,neutral
a2tbkohgx08vrk,31,1346,0,3,Node3,picture4.jpg,1,threat,1,threat,2,neutral,1,threat
a2tbkohgx08vrk,32,1388,1,2,Node8,picture7.jpg,2,neutral,1,threat,2,neutral,1,neutral
a2tbkohgx08vrk,33,2050,0,2,Node3,picture4.jpg,1,threat,1,threat,1,threat,2,neutral
a2tbkohgx08vrk,34,14907,0,2,Node2,picture4.jpg,1,neutral,1,threat,1,neutral,2,neutral
a2tbkohgx08vrk,35,2627,0,1,Node10,picture1.jpg,2,neutral,2,neutral,2,threat,1,neutral
a2tbkohgx08vrk,36,2560,0,1,Node8,picture7.jpg,2,neutral,2,neutral,1,threat,2,neutral
a2tbkohgx08vrk,37,2157,1,3,Node6,picture6.jpg,2,neutral,1,neutral,1,threat,2,neutral
a2tbkohgx08vrk,38,2112,0,3,Node9,picture1.jpg,2,threat,2,neutral,1,neutral,2,threat
a2tbkohgx08vrk,39,1945,1,3,Node1,picture3.jpg,1,threat,2,neutral,2,neutral,1,threat
a2tbkohgx08vrk,40,2070,0,3,Node9,picture1.jpg,2,threat,2,neutral,1,threat,2,threat
a2tbkohgx08vrk,41,2338,0,2,Node10,picture1.jpg,2,neutral,2,threat,2,neutral,1,neutral
a2tbkohgx08vrk,42,1784,1,2,Node4,picture5.jpg,1,neutral,2,neutral,1,neutral,2,neutral
a2tbkohgx08vrk,43,1824,0,3,Node1,picture3.jpg,1,threat,1,neutral,2,threat,1,threat
a2tbkohgx08vrk,44,1705,0,3,Node3,picture4.jpg,1,threat,2,neutral,1,neutral,1,threat
a2tbkohgx08vrk,45,2456,1,1,Node10,picture1.jpg,2,neutral,2,neutral,1,threat,1,threat
a2tbkohgx08vrk,46,2540,0,2,Node1,picture3.jpg,1,threat,1,neutral,1,threat,2,threat
a2tbkohgx08vrk,47,1847,0,2,Node10,picture1.jpg,2,neutral,2,neutral,2,neutral,1,neutral
a2tbkohgx08vrk,48,2421,0,3,Node10,picture1.jpg,2,neutral,1,neutral,2,threat,2,neutral
a170wnufjk56wd,1,4151,1,2,Node8,picture6.jpg,2,neutral,1,neutral,2,neutral,1,neutral
a170wnufjk56wd,2,4673,1,2,Node9,picture9.jpg,2,neutral,1,neutral,2,neutral,1,neutral
a170wnufjk56wd,3,7100,0,3,Node1,picture3.jpg,1,threat,2,threat,1,neutral,1,threat
a170wnufjk56wd,4,13440,1,2,Node4,picture1.jpg,1,neutral,2,neutral,1,neutral,2,neutral
a170wnufjk56wd,5,4634,1,3,Node3,picture5.jpg,1,neutral,2,threat,2,neutral,1,neutral
a170wnufjk56wd,6,11818,1,1,Node2,picture2.jpg,1,threat,1,threat,2,threat,2,neutral
a170wnufjk56wd,7,5802,1,1,Node8,picture6.jpg,2,neutral,2,neutral,1,neutral,1,neutral
a170wnufjk56wd,8,5354,1,3,Node2,picture2.jpg,1,threat,2,neutral,2,threat,1,threat
a170wnufjk56wd,9,2856,0,1,Node6,picture7.jpg,2,neutral,2,neutral,1,neutral,2,neutral
a170wnufjk56wd,10,11242,1,3,Node3,picture5.jpg,1,neutral,2,neutral,2,threat,1,neutral
a170wnufjk56wd,11,8765,1,1,Node4,picture1.jpg,1,neutral,1,neutral,2,neutral,2,neutral
a170wnufjk56wd,12,7372,1,2,Node3,picture5.jpg,1,neutral,2,neutral,1,neutral,2,threat
a170wnufjk56wd,13,5701,1,1,Node1,picture3.jpg,1,threat,1,threat,2,neutral,2,neutral
a170wnufjk56wd,14,6816,1,1,Node6,picture7.jpg,2,neutral,2,neutral,1,neutral,1,neutral
a170wnufjk56wd,15,7702,1,1,Node3,picture5.jpg,1,neutral,1,neutral,2,neutral,2,threat
a170wnufjk56wd,16,3554,1,3,Node2,picture2.jpg,1,threat,2,threat,2,neutral,1,threat
a170wnufjk56wd,17,5781,1,2,Node1,picture3.jpg,1,threat,2,neutral,1,threat,2,neutral
a170wnufjk56wd,18,19803,1,1,Node2,picture2.jpg,1,threat,1,threat,2,neutral,2,threat
a170wnufjk56wd,19,3370,1,3,Node9,picture9.jpg,2,neutral,1,neutral,1,neutral,2,neutral
a170wnufjk56wd,20,5661,1,2,Node10,picture1.jpg,2,threat,1,threat,2,threat,1,neutral
a170wnufjk56wd,21,4968,1,3,Node4,picture1.jpg,1,neutral,2,neutral,2,neutral,1,neutral
a170wnufjk56wd,22,6734,1,1,Node3,picture5.jpg,1,neutral,1,neutral,2,threat,2,neutral
a170wnufjk56wd,23,7899,1,3,Node4,picture1.jpg,1,neutral,2,neutral,2,neutral,1,neutral
a170wnufjk56wd,24,3292,1,3,Node1,picture3.jpg,1,threat,2,neutral,2,neutral,1,threat
a170wnufjk56wd,25,5792,1,2,Node3,picture5.jpg,1,neutral,2,threat,1,neutral,2,neutral
a170wnufjk56wd,26,4559,1,2,Node1,picture3.jpg,1,threat,2,neutral,1,threat,2,neutral
a170wnufjk56wd,27,5254,1,1,Node9,picture9.jpg,2,neutral,2,neutral,1,neutral,1,neutral
a170wnufjk56wd,28,6310,1,2,Node10,picture1.jpg,2,threat,1,neutral,2,threat,1,threat
a170wnufjk56wd,29,7788,1,3,Node6,picture7.jpg,2,neutral,1,neutral,1,neutral,2,neutral
a170wnufjk56wd,30,6723,1,3,Node10,picture1.jpg,2,threat,1,neutral,1,threat,2,threat
a170wnufjk56wd,31,4444,1,2,Node9,picture9.jpg,2,neutral,1,neutral,2,neutral,1,neutral
a170wnufjk56wd,32,2938,1,3,Node10,picture1.jpg,2,threat,1,threat,1,neutral,2,threat
a170wnufjk56wd,33,7210,1,2,Node8,picture6.jpg,2,neutral,1,neutral,2,neutral,1,neutral
a170wnufjk56wd,34,2990,0,2,Node6,picture7.jpg,2,neutral,1,neutral,2,neutral,2,neutral
a170wnufjk56wd,35,4783,1,1,Node1,picture3.jpg,1,threat,1,threat,2,neutral,2,neutral
a170wnufjk56wd,36,6532,0,1,Node10,picture1.jpg,2,threat,2,threat,1,threat,2,neutral
a170wnufjk56wd,37,7318,1,1,Node8,picture6.jpg,2,neutral,2,neutral,1,neutral,1,neutral
a170wnufjk56wd,38,4292,1,1,Node6,picture7.jpg,2,neutral,2,neutral,1,neutral,1,neutral
a170wnufjk56wd,39,3018,1,2,Node2,picture2.jpg,1,threat,2,neutral,1,threat,2,threat
a170wnufjk56wd,40,3127,1,1,Node10,picture1.jpg,2,threat,2,threat,1,threat,1,neutral
a170wnufjk56wd,41,4177,1,3,Node8,picture6.jpg,2,neutral,1,neutral,1,neutral,2,neutral
a170wnufjk56wd,42,11034,1,3,Node9,picture9.jpg,2,neutral,1,neutral,1,neutral,2,neutral
a170wnufjk56wd,43,3215,1,2,Node6,picture7.jpg,2,neutral,1,neutral,2,neutral,1,neutral
a170wnufjk56wd,44,10144,1,1,Node9,picture9.jpg,2,neutral,2,neutral,1,neutral,1,neutral
a170wnufjk56wd,45,4067,1,3,Node8,picture6.jpg,2,neutral,1,neutral,1,neutral,2,neutral
a170wnufjk56wd,46,3635,1,3,Node6,picture7.jpg,2,neutral,1,neutral,1,neutral,2,neutral
a170wnufjk56wd,47,3092,1,3,Node1,picture3.jpg,1,threat,2,neutral,2,neutral,1,threat
a170wnufjk56wd,48,7230,1,2,Node6,picture7.jpg,2,neutral,1,neutral,2,neutral,1,neutral
a3my6t1kdlazvp,1,4624,1,3,Node2,picture10.jpg,1,neutral,2,threat,2,neutral,1,neutral
a3my6t1kdlazvp,2,2209,1,1,Node8,picture1.jpg,2,neutral,2,neutral,1,threat,1,threat
a3my6t1kdlazvp,3,2451,1,1,Node10,picture4.jpg,2,threat,2,threat,1,neutral,1,neutral
a3my6t1kdlazvp,4,2612,1,3,Node6,picture8.jpg,2,neutral,1,threat,1,neutral,2,neutral
a3my6t1kdlazvp,5,2155,1,3,Node9,picture1.jpg,2,threat,1,neutral,1,threat,2,threat
a3my6t1kdlazvp,6,2523,1,1,Node6,picture8.jpg,2,neutral,2,neutral,1,neutral,1,threat
a3my6t1kdlazvp,7,1901,1,2,Node9,picture1.jpg,2,threat,1,neutral,2,threat,1,threat
a3my6t1kdlazvp,8,2775,1,1,Node2,picture10.jpg,1,neutral,1,neutral,2,threat,2,neutral
a3my6t1kdlazvp,9,2230,1,1,Node4,picture3.jpg,1,threat,1,threat,2,neutral,2,threat
a3my6t1kdlazvp,10,1898,1,3,Node1,picture2.jpg,1,threat,2,neutral,2,threat,1,threat
a3my6t1kdlazvp,11,3126,1,2,Node2,picture10.jpg,1,neutral,2,neutral,1,neutral,2,threat
a3my6t1kdlazvp,12,2362,1,1,Node4,picture3.jpg,1,threat,1,threat,2,threat,2,neutral
a3my6t1kdlazvp,13,3463,1,2,Node1,picture2.jpg,1,threat,2,neutral,1,threat,2,threat
a3my6t1kdlazvp,14,5209,1,1,Node9,picture1.jpg,2,threat,2,threat,1,neutral,1,threat
a3my6t1kdlazvp,15,2841,1,2,Node8,picture1.jpg,2,neutral,1,threat,2,neutral,1,threat
a3my6t1kdlazvp,16,2162,1,1,Node1,picture2.jpg,1,threat,1,threat,2,neutral,2,threat
a3my6t1kdlazvp,17,2928,1,2,Node9,picture1.jpg,2,threat,1,threat,2,threat,1,neutral
a3my6t1kdlazvp,18,2921,1,2,Node6,picture8.jpg,2,neutral,1,neutral,2,neutral,1,threat
a3my6t1kdlazvp,19,2094,1,3,Node10,picture4.jpg,2,threat,1,neutral,1,neutral,2,threat
a3my6t1kdlazvp,20,3324,1,2,Node4,picture3.jpg,1,threat,2,neutral,1,threat,2,threat
a3my6t1kdlazvp,21,3114,1,3,Node10,picture4.jpg,2,threat,1,neutral,1,neutral,2,threat
a3my6t1kdlazvp,22,2239,1,1,Node6,picture8.jpg,2,neutral,2,neutral,1,threat,1,neutral
a3my6t1kdlazvp,23,2662,1,1,Node8,picture1.jpg,2,neutral,2,neutral,1,threat,1,threat
a3my6t1kdlazvp,24,3360,1,1,Node1,picture2.jpg,1,threat,1,threat,2,threat,2,neutral
a3my6t1kdlazvp,25,1979,1,3,Node2,picture10.jpg,1,neutral,2,neutral,2,threat,1,neutral
a3my6t1kdlazvp,26,4090,1,3,Node8,picture1.jpg,2,neutral,1,threat,1,threat,2,neutral
a3my6t1kdlazvp,27,5351,1,1,Node3,picture7.jpg,1,neutral,1,neutral,2,threat,2,neutral
a3my6t1kdlazvp,28,2768,1,1,Node2,picture10.jpg,1,neutral,1,neutral,2,neutral,2,threat
a3my6t1kdlazvp,29,3415,1,1,Node3,picture7.jpg,1,neutral,1,neutral,2,neutral,2,threat
a3my6t1kdlazvp,30,2549,1,2,Node4,picture3.jpg,1,threat,2,threat,1,threat,2,neutral
a3my6t1kdlazvp,31,4048,1,2,Node2,picture10.jpg,1,neutral,2,threat,1,neutral,2,neutral
a3my6t1kdlazvp,32,4425,1,3,Node3,picture7.jpg,1,neutral,2,threat,2,neutral,1,neutral
a3my6t1kdlazvp,33,5293,1,2,Node8,picture1.jpg,2,neutral,1,threat,2,neutral,1,threat
a3my6t1kdlazvp,34,3214,1,2,Node3,picture7.jpg,1,neutral,2,threat,1,neutral,2,neutral
a3my6t1kdlazvp,35,4535,1,3,Node8,picture1.jpg,2,neutral,1,threat,1,threat,2,neutral
a3my6t1kdlazvp,36,6480,1,3,Node4,picture3.jpg,1,threat,2,neutral,2,threat,1,threat
a3my6t1kdlazvp,37,3824,1,2,Node6,picture8.jpg,2,neutral,1,threat,2,neutral,1,neutral
a3my6t1kdlazvp,38,4147,1,3,Node9,picture1.jpg,2,threat,1,threat,1,neutral,2,threat
a3my6t1kdlazvp,39,6500,1,3,Node6,picture8.jpg,2,neutral,1,neutral,1,threat,2,neutral
a3my6t1kdlazvp,40,2624,1,2,Node10,picture4.jpg,2,threat,1,neutral,2,threat,1,neutral
a3my6t1kdlazvp,41,4707,1,2,Node3,picture7.jpg,1,neutral,2,neutral,1,neutral,2,threat
a3my6t1kdlazvp,42,9026,1,2,Node1,picture2.jpg,1,threat,2,threat,1,threat,2,neutral
a3my6t1kdlazvp,43,5442,1,2,Node10,picture4.jpg,2,threat,1,neutral,2,threat,1,neutral
a3my6t1kdlazvp,44,4603,1,3,Node1,picture2.jpg,1,threat,2,threat,2,neutral,1,threat
a3my6t1kdlazvp,45,2974,0,1,Node6,picture8.jpg,2,neutral,2,neutral,2,threat,1,neutral
a3my6t1kdlazvp,46,3684,1,3,Node4,picture3.jpg,1,threat,2,threat,2,neutral,1,threat
a3my6t1kdlazvp,47,2074,1,1,Node10,picture4.jpg,2,threat,2,threat,1,neutral,1,neutral
a3my6t1kdlazvp,48,3683,1,1,Node9,picture1.jpg,2,threat,2,threat,1,threat,1,neutral
a3hopybwsr1twr,1,2567,1,3,Node10,picture4.jpg,2,neutral,1,threat,1,neutral,2,neutral
a3hopybwsr1twr,2,4574,1,2,Node1,picture2.jpg,1,threat,2,neutral,1,threat,2,threat
a3hopybwsr1twr,3,2150,1,1,Node3,picture1.jpg,1,threat,1,threat,2,neutral,2,neutral
a3hopybwsr1twr,4,3137,1,3,Node1,picture2.jpg,1,threat,2,neutral,2,threat,1,threat
a3hopybwsr1twr,5,2068,1,3,Node3,picture1.jpg,1,threat,2,neutral,2,neutral,1,threat
a3hopybwsr1twr,6,2693,1,1,Node1,picture2.jpg,1,threat,1,threat,2,threat,2,neutral
a3hopybwsr1twr,7,2108,1,1,Node10,picture4.jpg,2,neutral,2,neutral,1,neutral,1,threat
a3hopybwsr1twr,8,2987,1,3,Node6,picture1.jpg,2,neutral,1,neutral,1,threat,2,neutral
a3hopybwsr1twr,9,5665,1,1,Node8,picture9.jpg,2,neutral,2,neutral,1,neutral,1,threat
a3hopybwsr1twr,10,2910,1,3,Node4,picture7.jpg,1,neutral,2,neutral,2,neutral,1,neutral
a3hopybwsr1twr,11,2184,1,1,Node2,picture3.jpg,1,neutral,1,neutral,2,neutral,2,neutral
a3hopybwsr1twr,12,2270,1,3,Node8,picture9.jpg,2,neutral,1,threat,1,neutral,2,neutral
a3hopybwsr1twr,13,3863,1,2,Node10,picture4.jpg,2,neutral,1,neutral,2,neutral,1,threat
a3hopybwsr1twr,14,4993,1,1,Node6,picture1.jpg,2,neutral,2,neutral,1,threat,1,neutral
a3hopybwsr1twr,15,6150,1,1,Node1,picture2.jpg,1,threat,1,threat,2,neutral,2,threat
a3hopybwsr1twr,16,4617,1,2,Node6,picture1.jpg,2,neutral,1,threat,2,neutral,1,neutral
a3hopybwsr1twr,17,4644,1,3,Node8,picture9.jpg,2,neutral,1,neutral,1,threat,2,neutral
a3hopybwsr1twr,18,2510,1,2,Node4,picture7.jpg,1,neutral,2,neutral,1,neutral,2,neutral
a3hopybwsr1twr,19,2946,1,3,Node1,picture2.jpg,1,threat,2,threat,2,neutral,1,threat
a3hopybwsr1twr,20,4962,1,2,Node9,picture4.jpg,2,threat,1,threat,2,threat,1,neutral
a3hopybwsr1twr,21,3443,1,2,Node3,picture1.jpg,1,threat,2,neutral,1,threat,2,neutral
a3hopybwsr1twr,22,3181,1,2,Node2,picture3.jpg,1,neutral,2,neutral,1,neutral,2,neutral
a3hopybwsr1twr,23,2182,1,2,Node9,picture4.jpg,2,threat,1,neutral,2,threat,1,threat
a3hopybwsr1twr,24,4936,1,1,Node10,picture4.jpg,2,neutral,2,neutral,1,threat,1,neutral
a3hopybwsr1twr,25,3039,1,2,Node8,picture9.jpg,2,neutral,1,neutral,2,neutral,1,threat
a3hopybwsr1twr,26,4636,1,2,Node4,picture7.jpg,1,neutral,2,neutral,1,neutral,2,neutral
a3hopybwsr1twr,27,3999,1,3,Node3,picture1.jpg,1,threat,2,neutral,2,neutral,1,threat
a3hopybwsr1twr,28,2436,1,2,Node1,picture2.jpg,1,threat,2,threat,1,threat,2,neutral
a3hopybwsr1twr,29,6701,1,2,Node6,picture1.jpg,2,neutral,1,neutral,2,neutral,1,threat
a3hopybwsr1twr,30,4455,1,1,Node8,picture9.jpg,2,neutral,2,neutral,1,threat,1,neutral
a3hopybwsr1twr,31,2516,1,1,Node9,picture4.jpg,2,threat,2,threat,1,neutral,1,threat
a3hopybwsr1twr,32,2433,1,2,Node2,picture3.jpg,1,neutral,2,neutral,1,neutral,2,neutral
a3hopybwsr1twr,33,5082,1,1,Node9,picture4.jpg,2,threat,2,threat,1,threat,1,neutral
a3hopybwsr1twr,34,3019,1,3,Node6,picture1.jpg,2,neutral,1,threat,1,neutral,2,neutral
a3hopybwsr1twr,35,5503,1,3,Node10,picture4.jpg,2,neutral,1,neutral,1,threat,2,neutral
a3hopybwsr1twr,36,6951,1,2,Node8,picture9.jpg,2,neutral,1,threat,2,neutral,1,neutral
a3hopybwsr1twr,37,2224,1,1,Node4,picture7.jpg,1,neutral,1,neutral,2,neutral,2,neutral
a3hopybwsr1twr,38,2075,1,3,Node2,picture3.jpg,1,neutral,2,neutral,2,neutral,1,neutral
a3hopybwsr1twr,39,3972,1,3,Node9,picture4.jpg,2,threat,1,neutral,1,threat,2,threat
a3hopybwsr1twr,40,3910,1,3,Node4,picture7.jpg,1,neutral,2,neutral,2,neutral,1,neutral
a3hopybwsr1twr,41,2481,1,1,Node3,picture1.jpg,1,threat,1,threat,2,neutral,2,neutral
a3hopybwsr1twr,42,4226,1,1,Node4,picture7.jpg,1,neutral,1,neutral,2,neutral,2,neutral
a3hopybwsr1twr,43,3586,1,2,Node3,picture1.jpg,1,threat,2,neutral,1,threat,2,neutral
a3hopybwsr1twr,44,1881,1,3,Node2,picture3.jpg,1,neutral,2,neutral,2,neutral,1,neutral
a3hopybwsr1twr,45,3371,1,3,Node9,picture4.jpg,2,threat,1,threat,1,neutral,2,threat
a3hopybwsr1twr,46,1741,1,1,Node2,picture3.jpg,1,neutral,1,neutral,2,neutral,2,neutral
a3hopybwsr1twr,47,3463,1,1,Node6,picture1.jpg,2,neutral,2,neutral,1,neutral,1,threat
a3hopybwsr1twr,48,4201,1,2,Node10,picture4.jpg,2,neutral,1,threat,2,neutral,1,neutral
aaislve5u7epm,1,13747,1,2,Node6,picture6.jpg,2,neutral,1,neutral,2,neutral,1,neutral
aaislve5u7epm,2,4429,1,2,Node8,picture3.jpg,2,threat,1,neutral,2,threat,1,neutral
aaislve5u7epm,3,3015,1,1,Node1,picture8.jpg,1,neutral,1,neutral,2,neutral,2,neutral
aaislve5u7epm,4,5231,1,2,Node2,picture2.jpg,1,threat,2,neutral,1,threat,2,threat
aaislve5u7epm,5,2257,1,3,Node4,picture1.jpg,1,neutral,2,threat,2,neutral,1,neutral
aaislve5u7epm,6,2455,1,2,Node1,picture8.jpg,1,neutral,2,neutral,1,neutral,2,neutral
aaislve5u7epm,7,2854,1,2,Node3,picture4.jpg,1,threat,2,neutral,1,threat,2,threat
aaislve5u7epm,8,4323,1,1,Node2,picture2.jpg,1,threat,1,threat,2,threat,2,neutral
aaislve5u7epm,9,3340,1,2,Node4,picture1.jpg,1,neutral,2,neutral,1,neutral,2,threat
aaislve5u7epm,10,3531,1,1,Node3,picture4.jpg,1,threat,1,threat,2,threat,2,neutral
aaislve5u7epm,11,2624,1,3,Node1,picture8.jpg,1,neutral,2,neutral,2,neutral,1,neutral
aaislve5u7epm,12,13818,1,3,Node4,picture1.jpg,1,neutral,2,neutral,2,threat,1,neutral
aaislve5u7epm,13,2396,1,1,Node1,picture8.jpg,1,neutral,1,neutral,2,neutral,2,neutral
aaislve5u7epm,14,3395,1,3,Node3,picture4.jpg,1,threat,2,neutral,2,threat,1,threat
aaislve5u7epm,15,2577,1,3,Node8,picture3.jpg,2,threat,1,neutral,1,neutral,2,threat
aaislve5u7epm,16,4604,1,1,Node6,picture6.jpg,2,neutral,2,neutral,1,neutral,1,neutral
aaislve5u7epm,17,4699,1,2,Node3,picture4.jpg,1,threat,2,threat,1,threat,2,neutral
aaislve5u7epm,18,2447,1,2,Node9,picture5.jpg,2,neutral,1,neutral,2,neutral,1,threat
aaislve5u7epm,19,3147,1,2,Node10,picture10.jpg,2,neutral,1,neutral,2,neutral,1,neutral
aaislve5u7epm,20,2895,1,3,Node9,picture5.jpg,2,neutral,1,neutral,1,threat,2,neutral
aaislve5u7epm,21,2381,1,2,Node4,picture1.jpg,1,neutral,2,threat,1,neutral,2,neutral
aaislve5u7epm,22,2905,1,3,Node2,picture2.jpg,1,threat,2,neutral,2,threat,1,threat
aaislve5u7epm,23,5144,1,3,Node8,picture3.jpg,2,threat,1,neutral,1,neutral,2,threat
aaislve5u7epm,24,5626,1,1,Node10,picture10.jpg,2,neutral,2,neutral,1,neutral,1,neutral
aaislve5u7epm,25,3430,1,1,Node4,picture1.jpg,1,neutral,1,neutral,2,threat,2,neutral
aaislve5u7epm,26,3924,1,3,Node2,picture2.jpg,1,threat,2,threat,2,neutral,1,threat
aaislve5u7epm,27,2322,1,3,Node1,picture8.jpg,1,neutral,2,neutral,2,neutral,1,neutral
aaislve5u7epm,28,2050,1,1,Node4,picture1.jpg,1,neutral,1,neutral,2,neutral,2,threat
aaislve5u7epm,29,4039,1,3,Node3,picture4.jpg,1,threat,2,threat,2,neutral,1,threat
aaislve5u7epm,30,2373,1,2,Node8,picture3.jpg,2,threat,1,neutral,2,threat,1,neutral
aaislve5u7epm,31,3910,1,1,Node6,picture6.jpg,2,neutral,2,neutral,1,neutral,1,neutral
aaislve5u7epm,32,3819,1,1,Node9,picture5.jpg,2,neutral,2,neutral,1,threat,1,neutral
aaislve5u7epm,33,2558,1,1,Node8,picture3.jpg,2,threat,2,threat,1,neutral,1,neutral
aaislve5u7epm,34,2683,1,2,Node1,picture8.jpg,1,neutral,2,neutral,1,neutral,2,neutral
aaislve5u7epm,35,3269,1,1,Node9,picture5.jpg,2,neutral,2,neutral,1,neutral,1,threat
aaislve5u7epm,36,3596,1,2,Node10,picture10.jpg,2,neutral,1,neutral,2,neutral,1,neutral
aaislve5u7epm,37,4086,1,2,Node9,picture5.jpg,2,neutral,1,threat,2,neutral,1,neutral
aaislve5u7epm,38,2169,1,3,Node10,picture10.jpg,2,neutral,1,neutral,1,neutral,2,neutral
aaislve5u7epm,39,14574,1,1,Node3,picture4.jpg,1,threat,1,threat,2,neutral,2,threat
aaislve5u7epm,40,4995,1,3,Node6,picture6.jpg,2,neutral,1,neutral,1,neutral,2,neutral
aaislve5u7epm,41,12896,1,1,Node8,picture3.jpg,2,threat,2,threat,1,neutral,1,neutral
aaislve5u7epm,42,1846,1,2,Node6,picture6.jpg,2,neutral,1,neutral,2,neutral,1,neutral
aaislve5u7epm,43,2087,1,3,Node9,picture5.jpg,2,neutral,1,threat,1,neutral,2,neutral
aaislve5u7epm,44,2172,1,1,Node10,picture10.jpg,2,neutral,2,neutral,1,neutral,1,neutral
aaislve5u7epm,45,3538,1,2,Node2,picture2.jpg,1,threat,2,threat,1,threat,2,neutral
aaislve5u7epm,46,3435,1,3,Node10,picture10.jpg,2,neutral,1,neutral,1,neutral,2,neutral
aaislve5u7epm,47,3421,1,1,Node2,picture2.jpg,1,threat,1,threat,2,neutral,2,threat
aaislve5u7epm,48,1680,1,3,Node6,picture6.jpg,2,neutral,1,neutral,1,neutral,2,neutral
a2y8lzs5c81o25,1,4803,1,2,Node8,picture1.jpg,2,neutral,1,threat,2,neutral,1,neutral
a2y8lzs5c81o25,2,4032,1,3,Node6,picture10.jpg,2,neutral,1,neutral,1,neutral,2,neutral
a2y8lzs5c81o25,3,2554,1,3,Node3,picture3.jpg,1,threat,2,neutral,2,threat,1,threat
a2y8lzs5c81o25,4,3059,1,2,Node6,picture10.jpg,2,neutral,1,neutral,2,neutral,1,neutral
a2y8lzs5c81o25,5,1051,0,2,Node8,picture1.jpg,2,neutral,2,neutral,2,neutral,1,threat
a2y8lzs5c81o25,6,3686,1,1,Node9,picture2.jpg,2,threat,2,threat,1,neutral,1,neutral
a2y8lzs5c81o25,7,1950,1,3,Node6,picture10.jpg,2,neutral,1,neutral,1,neutral,2,neutral
a2y8lzs5c81o25,8,2336,1,3,Node8,picture1.jpg,2,neutral,1,threat,1,neutral,2,neutral
a2y8lzs5c81o25,9,3093,1,3,Node9,picture2.jpg,2,threat,1,neutral,1,neutral,2,threat
a2y8lzs5c81o25,10,2376,1,1,Node4,picture6.jpg,1,neutral,1,neutral,2,neutral,2,neutral
a2y8lzs5c81o25,11,2497,1,2,Node10,picture8.jpg,2,neutral,1,threat,2,neutral,1,threat
a2y8lzs5c81o25,12,905,0,1,Node8,picture1.jpg,2,neutral,2,neutral,1,neutral,2,threat
a2y8lzs5c81o25,13,4647,1,3,Node4,picture6.jpg,1,neutral,2,neutral,2,neutral,1,neutral
a2y8lzs5c81o25,14,1383,1,1,Node2,picture4.jpg,1,threat,1,threat,2,neutral,2,neutral
a2y8lzs5c81o25,15,1408,0,2,Node4,picture6.jpg,1,neutral,2,threat,1,neutral,1,neutral
a2y8lzs5c81o25,16,1424,1,3,Node2,picture4.jpg,1,threat,2,neutral,2,neutral,1,threat
a2y8lzs5c81o25,17,14468,0,3,Node8,picture1.jpg,2,neutral,2,neutral,1,neutral,2,neutral
a2y8lzs5c81o25,18,50431,1,2,Node3,picture3.jpg,1,threat,2,threat,1,threat,2,neutral
a2y8lzs5c81o25,19,5224,0,1,Node8,picture1.jpg,2,neutral,2,neutral,2,neutral,1,neutral
a2y8lzs5c81o25,20,2392,0,3,Node9,picture2.jpg,2,threat,1,neutral,2,neutral,2,threat
a2y8lzs5c81o25,21,4202,0,3,Node10,picture8.jpg,2,neutral,1,threat,2,threat,2,neutral
a2y8lzs5c81o25,22,1593,0,3,Node8,picture1.jpg,2,neutral,2,threat,1,neutral,2,neutral
a2y8lzs5c81o25,23,1523,0,3,Node10,picture8.jpg,2,neutral,1,threat,2,neutral,2,neutral
a2y8lzs5c81o25,24,3010,0,3,Node4,picture6.jpg,1,neutral,1,neutral,2,threat,1,neutral
a2y8lzs5c81o25,25,1008,0,2,Node4,picture6.jpg,1,neutral,2,neutral,1,neutral,1,neutral
a2y8lzs5c81o25,26,1870,0,1,Node10,picture8.jpg,2,neutral,2,neutral,1,threat,2,neutral
a2y8lzs5c81o25,27,1148,0,3,Node1,picture7.jpg,1,neutral,1,neutral,2,threat,1,neutral
a2y8lzs5c81o25,28,768,0,1,Node8,picture1.jpg,2,neutral,2,neutral,1,neutral,2,neutral
a2y8lzs5c81o25,29,1615,1,2,Node10,picture8.jpg,2,neutral,1,threat,2,neutral,1,threat
a2y8lzs5c81o25,30,1396,1,1,Node6,picture10.jpg,2,neutral,2,neutral,1,neutral,1,neutral
a2y8lzs5c81o25,31,1628,0,1,Node10,picture8.jpg,2,neutral,2,neutral,1,threat,2,threat
a2y8lzs5c81o25,32,2799,0,3,Node2,picture4.jpg,1,threat,1,neutral,2,neutral,1,threat
a2y8lzs5c81o25,33,2579,1,1,Node10,picture8.jpg,2,neutral,2,neutral,1,threat,1,threat
a2y8lzs5c81o25,34,1975,0,2,Node8,picture1.jpg,2,neutral,2,threat,2,neutral,1,neutral
a2y8lzs5c81o25,35,1018,1,1,Node3,picture3.jpg,1,threat,1,threat,2,neutral,2,threat
a2y8lzs5c81o25,36,1093,1,3,Node1,picture7.jpg,1,neutral,2,neutral,2,threat,1,neutral
a2y8lzs5c81o25,37,1787,1,1,Node4,picture6.jpg,1,neutral,1,neutral,2,neutral,2,neutral
a2y8lzs5c81o25,38,1380,0,3,Node2,picture4.jpg,1,threat,2,neutral,1,neutral,1,threat
a2y8lzs5c81o25,39,1051,0,1,Node9,picture2.jpg,2,threat,2,threat,2,neutral,1,threat
a2y8lzs5c81o25,40,1125,1,3,Node9,picture2.jpg,2,threat,1,neutral,1,neutral,2,threat
a2y8lzs5c81o25,41,1130,1,1,Node8,picture1.jpg,2,neutral,2,neutral,1,threat,1,neutral
a2y8lzs5c81o25,42,1304,0,3,Node2,picture4.jpg,1,threat,2,neutral,1,threat,1,threat
a2y8lzs5c81o25,43,1229,0,1,Node1,picture7.jpg,1,neutral,1,neutral,1,threat,2,neutral
a2y8lzs5c81o25,44,756,0,2,Node3,picture3.jpg,1,threat,1,threat,1,threat,2,neutral
a2y8lzs5c81o25,45,936,0,3,Node8,picture1.jpg,2,neutral,1,neutral,2,threat,2,neutral
a2y8lzs5c81o25,46,2453,0,3,Node10,picture8.jpg,2,neutral,2,neutral,1,threat,2,neutral
a2y8lzs5c81o25,47,2084,1,2,Node6,picture10.jpg,2,neutral,1,neutral,2,neutral,1,neutral
a2y8lzs5c81o25,48,1184,1,3,Node10,picture8.jpg,2,neutral,1,threat,1,threat,2,neutral
a3lxaru55pr281,1,16985,1,3,Node2,picture9.jpg,1,neutral,2,neutral,2,threat,1,neutral
a3lxaru55pr281,2,7129,1,2,Node1,picture2.jpg,1,threat,2,threat,1,threat,2,neutral
a3lxaru55pr281,3,2092,1,1,Node4,picture1.jpg,1,neutral,1,neutral,2,neutral,2,neutral
a3lxaru55pr281,4,2315,1,3,Node9,picture8.jpg,2,neutral,1,neutral,1,threat,2,neutral
a3lxaru55pr281,5,2056,1,1,Node3,picture1.jpg,1,threat,1,threat,2,threat,2,neutral
a3lxaru55pr281,6,1904,1,2,Node10,picture10.jpg,2,neutral,1,neutral,2,neutral,1,neutral
a3lxaru55pr281,7,3103,1,3,Node8,picture4.jpg,2,threat,1,threat,1,neutral,2,threat
a3lxaru55pr281,8,1976,1,3,Node6,picture2.jpg,2,neutral,1,threat,1,threat,2,neutral
a3lxaru55pr281,9,2292,1,2,Node8,picture4.jpg,2,threat,1,neutral,2,threat,1,threat
a3lxaru55pr281,10,1949,1,3,Node4,picture1.jpg,1,neutral,2,neutral,2,neutral,1,neutral
a3lxaru55pr281,11,1737,1,3,Node3,picture1.jpg,1,threat,2,threat,2,neutral,1,threat
a3lxaru55pr281,12,1630,1,3,Node10,picture10.jpg,2,neutral,1,neutral,1,neutral,2,neutral
a3lxaru55pr281,13,2777,1,1,Node1,picture2.jpg,1,threat,1,threat,2,neutral,2,threat
a3lxaru55pr281,14,1416,1,2,Node4,picture1.jpg,1,neutral,2,neutral,1,neutral,2,neutral
a3lxaru55pr281,15,2054,1,1,Node9,picture8.jpg,2,neutral,2,neutral,1,neutral,1,threat
a3lxaru55pr281,16,4345,1,1,Node2,picture9.jpg,1,neutral,1,neutral,2,neutral,2,threat
a3lxaru55pr281,17,1495,1,3,Node3,picture1.jpg,1,threat,2,neutral,2,threat,1,threat
a3lxaru55pr281,18,5115,1,3,Node10,picture10.jpg,2,neutral,1,neutral,1,neutral,2,neutral
a3lxaru55pr281,19,2091,1,2,Node6,picture2.jpg,2,neutral,1,threat,2,neutral,1,threat
a3lxaru55pr281,20,2235,1,2,Node3,picture1.jpg,1,threat,2,neutral,1,threat,2,threat
a3lxaru55pr281,21,2410,1,1,Node1,picture2.jpg,1,threat,1,threat,2,threat,2,neutral
a3lxaru55pr281,22,1874,1,2,Node3,picture1.jpg,1,threat,2,threat,1,threat,2,neutral
a3lxaru55pr281,23,2058,1,2,Node9,picture8.jpg,2,neutral,1,threat,2,neutral,1,neutral
a3lxaru55pr281,24,6175,1,3,Node8,picture4.jpg,2,threat,1,neutral,1,threat,2,threat
a3lxaru55pr281,25,2208,1,1,Node10,picture10.jpg,2,neutral,2,neutral,1,neutral,1,neutral
a3lxaru55pr281,26,3456,1,1,Node8,picture4.jpg,2,threat,2,threat,1,neutral,1,threat
a3lxaru55pr281,27,2075,1,2,Node10,picture10.jpg,2,neutral,1,neutral,2,neutral,1,neutral
a3lxaru55pr281,28,2401,1,1,Node8,picture4.jpg,2,threat,2,threat,1,threat,1,neutral
a3lxaru55pr281,29,1904,1,2,Node6,picture2.jpg,2,neutral,1,threat,2,neutral,1,threat
a3lxaru55pr281,30,5444,1,3,Node4,picture1.jpg,1,neutral,2,neutral,2,neutral,1,neutral
a3lxaru55pr281,31,5879,1,3,Node9,picture8.jpg,2,neutral,1,threat,1,neutral,2,neutral
a3lxaru55pr281,32,4248,1,1,Node6,picture2.jpg,2,neutral,2,neutral,1,threat,1,threat
a3lxaru55pr281,33,2154,1,1,Node10,picture10.jpg,2,neutral,2,neutral,1,neutral,1,neutral
a3lxaru55pr281,34,7230,1,3,Node6,picture2.jpg,2,neutral,1,threat,1,threat,2,neutral
a3lxaru55pr281,35,7683,1,2,Node9,picture8.jpg,2,neutral,1,neutral,2,neutral,1,threat
a3lxaru55pr281,36,1716,1,3,Node2,picture9.jpg,1,neutral,2,threat,2,neutral,1,neutral
a3lxaru55pr281,37,2250,1,1,Node3,picture1.jpg,1,threat,1,threat,2,neutral,2,threat
a3lxaru55pr281,38,2248,1,1,Node9,picture8.jpg,2,neutral,2,neutral,1,threat,1,neutral
a3lxaru55pr281,39,10588,1,1,Node2,picture9.jpg,1,neutral,1,neutral,2,threat,2,neutral
a3lxaru55pr281,40,1821,1,3,Node1,picture2.jpg,1,threat,2,threat,2,neutral,1,threat
a3lxaru55pr281,41,3803,1,2,Node2,picture9.jpg,1,neutral,2,neutral,1,neutral,2,threat
a3lxaru55pr281,42,2041,1,1,Node4,picture1.jpg,1,neutral,1,neutral,2,neutral,2,neutral
a3lxaru55pr281,43,3835,1,3,Node1,picture2.jpg,1,threat,2,neutral,2,threat,1,threat
a3lxaru55pr281,44,4108,1,2,Node2,picture9.jpg,1,neutral,2,threat,1,neutral,2,neutral
a3lxaru55pr281,45,1463,1,2,Node4,picture1.jpg,1,neutral,2,neutral,1,neutral,2,neutral
a3lxaru55pr281,46,1965,1,1,Node6,picture2.jpg,2,neutral,2,neutral,1,threat,1,threat
a3lxaru55pr281,47,3233,1,2,Node1,picture2.jpg,1,threat,2,neutral,1,threat,2,threat
a3lxaru55pr281,48,2206,1,2,Node8,picture4.jpg,2,threat,1,threat,2,threat,1,neutral
a159ng9mhv7e7v,1,4389,0,1,Node9,picture3.jpg,2,threat,2,threat,2,neutral,1,threat
a159ng9mhv7e7v,2,3086,1,3,Node9,picture3.jpg,2,threat,1,neutral,1,neutral,2,threat
a159ng9mhv7e7v,3,3867,1,3,Node6,picture5.jpg,2,neutral,1,threat,1,neutral,2,neutral
a159ng9mhv7e7v,4,3032,1,2,Node9,picture3.jpg,2,threat,1,neutral,2,threat,1,neutral
a159ng9mhv7e7v,5,4774,1,2,Node3,picture4.jpg,1,threat,2,neutral,1,threat,2,neutral
a159ng9mhv7e7v,6,2025,1,1,Node9,picture3.jpg,2,threat,2,threat,1,neutral,1,neutral
a159ng9mhv7e7v,7,3356,1,1,Node10,picture9.jpg,2,neutral,2,neutral,1,threat,1,neutral
a159ng9mhv7e7v,8,2382,1,1,Node1,picture2.jpg,1,threat,1,threat,2,neutral,2,threat
a159ng9mhv7e7v,9,3637,0,2,Node2,picture4.jpg,1,neutral,1,neutral,1,neutral,2,neutral
a159ng9mhv7e7v,10,2493,1,3,Node10,picture9.jpg,2,neutral,1,threat,1,neutral,2,neutral
a159ng9mhv7e7v,11,3741,1,2,Node8,picture1.jpg,2,neutral,1,neutral,2,neutral,1,neutral
a159ng9mhv7e7v,12,5536,0,2,Node4,picture10.jpg,1,neutral,2,neutral,1,neutral,1,threat
a159ng9mhv7e7v,13,3045,1,2,Node8,picture1.jpg,2,neutral,1,neutral,2,neutral,1,neutral
a159ng9mhv7e7v,14,5878,1,1,Node6,picture5.jpg,2,neutral,2,neutral,1,neutral,1,threat
a159ng9mhv7e7v,15,1918,1,2,Node9,picture3.jpg,2,threat,1,neutral,2,threat,1,neutral
a159ng9mhv7e7v,16,4571,1,1,Node3,picture4.jpg,1,threat,1,threat,2,neutral,2,neutral
a159ng9mhv7e7v,17,2871,1,1,Node8,picture1.jpg,2,neutral,2,neutral,1,neutral,1,neutral
a159ng9mhv7e7v,18,2369,1,3,Node6,picture5.jpg,2,neutral,1,neutral,1,threat,2,neutral
a159ng9mhv7e7v,19,4879,1,1,Node9,picture3.jpg,2,threat,2,threat,1,neutral,1,neutral
a159ng9mhv7e7v,20,2567,1,3,Node2,picture4.jpg,1,neutral,2,neutral,2,neutral,1,neutral
a159ng9mhv7e7v,21,4678,1,2,Node1,picture2.jpg,1,threat,2,threat,1,threat,2,neutral
a159ng9mhv7e7v,22,3667,1,3,Node3,picture4.jpg,1,threat,2,neutral,2,neutral,1,threat
a159ng9mhv7e7v,23,3903,1,2,Node2,picture4.jpg,1,neutral,2,neutral,1,neutral,2,neutral
a159ng9mhv7e7v,24,3766,1,2,Node10,picture9.jpg,2,neutral,1,neutral,2,neutral,1,threat
a159ng9mhv7e7v,25,2597,1,1,Node6,picture5.jpg,2,neutral,2,neutral,1,threat,1,neutral
a159ng9mhv7e7v,26,3048,1,1,Node8,picture1.jpg,2,neutral,2,neutral,1,neutral,1,neutral
a159ng9mhv7e7v,27,2137,1,2,Node6,picture5.jpg,2,neutral,1,neutral,2,neutral,1,threat
a159ng9mhv7e7v,28,3278,1,2,Node4,picture10.jpg,1,neutral,2,neutral,1,neutral,2,threat
a159ng9mhv7e7v,29,6196,0,3,Node8,picture1.jpg,2,neutral,1,threat,2,threat,2,neutral
a159ng9mhv7e7v,30,3196,1,3,Node9,picture3.jpg,2,threat,1,neutral,1,neutral,2,threat
a159ng9mhv7e7v,31,2974,1,3,Node2,picture4.jpg,1,neutral,2,neutral,2,neutral,1,neutral
a159ng9mhv7e7v,32,3471,1,3,Node4,picture10.jpg,1,neutral,2,threat,2,neutral,1,neutral
a159ng9mhv7e7v,33,2004,1,2,Node3,picture4.jpg,1,threat,2,neutral,1,threat,2,neutral
a159ng9mhv7e7v,34,3400,1,1,Node4,picture10.jpg,1,neutral,1,neutral,2,neutral,2,threat
a159ng9mhv7e7v,35,4060,0,1,Node8,picture1.jpg,2,neutral,2,neutral,2,threat,1,threat
a159ng9mhv7e7v,36,5031,1,1,Node2,picture4.jpg,1,neutral,1,neutral,2,neutral,2,neutral
a159ng9mhv7e7v,37,3996,1,1,Node4,picture10.jpg,1,neutral,1,neutral,2,threat,2,neutral
a159ng9mhv7e7v,38,3034,1,2,Node1,picture2.jpg,1,threat,2,neutral,1,threat,2,threat
a159ng9mhv7e7v,39,3915,1,1,Node2,picture4.jpg,1,neutral,1,neutral,2,neutral,2,neutral
a159ng9mhv7e7v,40,3554,1,1,Node3,picture4.jpg,1,threat,1,threat,2,neutral,2,neutral
a159ng9mhv7e7v,41,4097,0,3,Node4,picture10.jpg,1,neutral,1,threat,2,neutral,1,neutral
a159ng9mhv7e7v,42,2367,1,2,Node4,picture10.jpg,1,neutral,2,threat,1,neutral,2,neutral
a159ng9mhv7e7v,43,4538,1,3,Node3,picture4.jpg,1,threat,2,neutral,2,neutral,1,threat
a159ng9mhv7e7v,44,4051,0,1,Node4,picture10.jpg,1,neutral,1,neutral,1,threat,2,neutral
a159ng9mhv7e7v,45,2761,1,3,Node4,picture10.jpg,1,neutral,2,neutral,2,threat,1,neutral
a159ng9mhv7e7v,46,5895,1,2,Node2,picture4.jpg,1,neutral,2,neutral,1,neutral,2,neutral
a159ng9mhv7e7v,47,3311,1,2,Node10,picture9.jpg,2,neutral,1,threat,2,neutral,1,neutral
a159ng9mhv7e7v,48,1953,1,3,Node8,picture1.jpg,2,neutral,1,neutral,1,neutral,2,neutral
a3ft026lqj29ip,1,3651,1,1,Node8,picture7.jpg,2,neutral,2,neutral,1,neutral,1,neutral
a3ft026lqj29ip,2,4478,1,3,Node6,picture1.jpg,2,neutral,1,threat,1,threat,2,neutral
a3ft026lqj29ip,3,3230,1,1,Node8,picture7.jpg,2,neutral,2,neutral,1,neutral,1,neutral
a3ft026lqj29ip,4,2849,1,1,Node2,picture3.jpg,1,threat,1,threat,2,threat,2,neutral
a3ft026lqj29ip,5,4214,1,3,Node10,picture9.jpg,2,neutral,1,threat,1,neutral,2,neutral
a3ft026lqj29ip,6,4147,1,2,Node4,picture4.jpg,1,threat,2,threat,1,threat,2,neutral
a3ft026lqj29ip,7,2585,1,1,Node2,picture3.jpg,1,threat,1,threat,2,neutral,2,threat
a3ft026lqj29ip,8,4020,1,2,Node10,picture9.jpg,2,neutral,1,neutral,2,neutral,1,threat
a3ft026lqj29ip,9,3389,1,1,Node4,picture4.jpg,1,threat,1,threat,2,threat,2,neutral
a3ft026lqj29ip,10,4011,1,1,Node3,picture4.jpg,1,neutral,1,neutral,2,neutral,2,neutral
a3ft026lqj29ip,11,2429,1,3,Node2,picture3.jpg,1,threat,2,neutral,2,threat,1,threat
a3ft026lqj29ip,12,2956,1,1,Node10,picture9.jpg,2,neutral,2,neutral,1,neutral,1,threat
a3ft026lqj29ip,13,3886,1,3,Node6,picture1.jpg,2,neutral,1,threat,1,threat,2,neutral
a3ft026lqj29ip,14,3856,1,2,Node3,picture4.jpg,1,neutral,2,neutral,1,neutral,2,neutral
a3ft026lqj29ip,15,3964,1,2,Node2,picture3.jpg,1,threat,2,threat,1,threat,2,neutral
a3ft026lqj29ip,16,4099,1,1,Node10,picture9.jpg,2,neutral,2,neutral,1,threat,1,neutral
a3ft026lqj29ip,17,6264,1,2,Node2,picture3.jpg,1,threat,2,neutral,1,threat,2,threat
a3ft026lqj29ip,18,7474,1,3,Node1,picture3.jpg,1,neutral,2,threat,2,neutral,1,neutral
a3ft026lqj29ip,19,13063,1,3,Node4,picture4.jpg,1,threat,2,neutral,2,threat,1,threat
a3ft026lqj29ip,20,10644,1,3,Node9,picture1.jpg,2,threat,1,neutral,1,threat,2,threat
a3ft026lqj29ip,21,14260,1,2,Node6,picture1.jpg,2,neutral,1,threat,2,neutral,1,threat
a3ft026lqj29ip,22,16125,1,3,Node3,picture4.jpg,1,neutral,2,neutral,2,neutral,1,neutral
a3ft026lqj29ip,23,12884,1,1,Node6,picture1.jpg,2,neutral,2,neutral,1,threat,1,threat
a3ft026lqj29ip,24,15301,1,2,Node10,picture9.jpg,2,neutral,1,threat,2,neutral,1,neutral
a3ft026lqj29ip,25,3470,1,3,Node9,picture1.jpg,2,threat,1,threat,1,neutral,2,threat
a3ft026lqj29ip,26,10164,1,2,Node8,picture7.jpg,2,neutral,1,neutral,2,neutral,1,neutral
a3ft026lqj29ip,27,16320,1,2,Node1,picture3.jpg,1,neutral,2,threat,1,neutral,2,neutral
a3ft026lqj29ip,28,3186,1,3,Node3,picture4.jpg,1,neutral,2,neutral,2,neutral,1,neutral
a3ft026lqj29ip,29,5848,1,2,Node1,picture3.jpg,1,neutral,2,neutral,1,neutral,2,threat
a3ft026lqj29ip,30,6715,1,3,Node2,picture3.jpg,1,threat,2,threat,2,neutral,1,threat
a3ft026lqj29ip,31,6358,1,3,Node8,picture7.jpg,2,neutral,1,neutral,1,neutral,2,neutral
a3ft026lqj29ip,32,4130,1,1,Node6,picture1.jpg,2,neutral,2,neutral,1,threat,1,threat
a3ft026lqj29ip,33,2753,1,3,Node8,picture7.jpg,2,neutral,1,neutral,1,neutral,2,neutral
a3ft026lqj29ip,34,4363,1,2,Node6,picture1.jpg,2,neutral,1,threat,2,neutral,1,threat
a3ft026lqj29ip,35,3720,0,1,Node8,picture7.jpg,2,neutral,2,neutral,1,threat,2,threat
a3ft026lqj29ip,36,5127,1,2,Node8,picture7.jpg,2,neutral,1,neutral,2,neutral,1,neutral
a3ft026lqj29ip,37,4157,1,2,Node9,picture1.jpg,2,threat,1,neutral,2,threat,1,threat
a3ft026lqj29ip,38,2086,1,2,Node3,picture4.jpg,1,neutral,2,neutral,1,neutral,2,neutral
a3ft026lqj29ip,39,10547,1,1,Node1,picture3.jpg,1,neutral,1,neutral,2,threat,2,neutral
a3ft026lqj29ip,40,2797,1,1,Node9,picture1.jpg,2,threat,2,threat,1,neutral,1,threat
a3ft026lqj29ip,41,3078,1,1,Node3,picture4.jpg,1,neutral,1,neutral,2,neutral,2,neutral
a3ft026lqj29ip,42,3139,1,1,Node4,picture4.jpg,1,threat,1,threat,2,neutral,2,threat
a3ft026lqj29ip,43,10323,1,3,Node1,picture3.jpg,1,neutral,2,neutral,2,threat,1,neutral
a3ft026lqj29ip,44,7585,1,1,Node9,picture1.jpg,2,threat,2,threat,1,threat,1,neutral
a3ft026lqj29ip,45,3817,1,3,Node10,picture9.jpg,2,neutral,1,neutral,1,threat,2,neutral
a3ft026lqj29ip,46,3534,1,3,Node4,picture4.jpg,1,threat,2,threat,2,neutral,1,threat
a3ft026lqj29ip,47,2816,1,1,Node1,picture3.jpg,1,neutral,1,neutral,2,neutral,2,threat
a3ft026lqj29ip,48,2650,1,2,Node9,picture1.jpg,2,threat,1,threat,2,threat,1,neutral
avke1noi9tx8z,1,8371,1,2,Node6,picture9.jpg,2,neutral,1,threat,2,neutral,1,neutral
avke1noi9tx8z,2,3898,1,2,Node10,picture3.jpg,2,threat,1,threat,2,threat,1,threat
avke1noi9tx8z,3,6465,1,2,Node8,picture4.jpg,2,threat,1,neutral,2,threat,1,threat
avke1noi9tx8z,4,2654,1,3,Node6,picture9.jpg,2,neutral,1,threat,1,neutral,2,neutral
avke1noi9tx8z,5,4017,1,1,Node8,picture4.jpg,2,threat,2,threat,1,neutral,1,threat
avke1noi9tx8z,6,3072,1,2,Node9,picture7.jpg,2,neutral,1,neutral,2,neutral,1,neutral
avke1noi9tx8z,7,12278,1,2,Node1,picture2.jpg,1,threat,2,threat,1,threat,2,neutral
avke1noi9tx8z,8,4881,1,3,Node4,picture1.jpg,1,neutral,2,threat,2,threat,1,neutral
avke1noi9tx8z,9,5311,1,3,Node8,picture4.jpg,2,threat,1,threat,1,neutral,2,threat
avke1noi9tx8z,10,2675,1,3,Node6,picture9.jpg,2,neutral,1,neutral,1,threat,2,neutral
avke1noi9tx8z,11,3599,1,3,Node4,picture1.jpg,1,neutral,2,threat,2,threat,1,neutral
avke1noi9tx8z,12,2783,1,3,Node10,picture3.jpg,2,threat,1,threat,1,threat,2,threat
avke1noi9tx8z,13,13074,1,3,Node2,picture5.jpg,1,neutral,2,neutral,2,threat,1,neutral
avke1noi9tx8z,14,2441,1,3,Node3,picture1.jpg,1,threat,2,threat,2,neutral,1,threat
avke1noi9tx8z,15,3369,1,2,Node9,picture7.jpg,2,neutral,1,neutral,2,neutral,1,neutral
avke1noi9tx8z,16,14875,1,2,Node10,picture3.jpg,2,threat,1,threat,2,threat,1,threat
avke1noi9tx8z,17,6429,1,1,Node3,picture1.jpg,1,threat,1,threat,2,threat,2,neutral
avke1noi9tx8z,18,4826,1,1,Node6,picture9.jpg,2,neutral,2,neutral,1,threat,1,neutral
avke1noi9tx8z,19,3779,1,1,Node8,picture4.jpg,2,threat,2,threat,1,threat,1,neutral
avke1noi9tx8z,20,4874,1,3,Node9,picture7.jpg,2,neutral,1,neutral,1,neutral,2,neutral
avke1noi9tx8z,21,9819,1,2,Node1,picture2.jpg,1,threat,2,neutral,1,threat,2,threat
avke1noi9tx8z,22,3105,1,3,Node9,picture7.jpg,2,neutral,1,neutral,1,neutral,2,neutral
avke1noi9tx8z,23,7517,1,2,Node4,picture1.jpg,1,neutral,2,threat,1,neutral,2,threat
avke1noi9tx8z,24,2828,1,1,Node2,picture5.jpg,1,neutral,1,neutral,2,threat,2,neutral
avke1noi9tx8z,25,2087,1,1,Node4,picture1.jpg,1,neutral,1,neutral,2,threat,2,threat
avke1noi9tx8z,26,2797,1,2,Node2,picture5.jpg,1,neutral,2,threat,1,neutral,2,neutral
avke1noi9tx8z,27,2943,1,1,Node6,picture9.jpg,2,neutral,2,neutral,1,neutral,1,threat
avke1noi9tx8z,28,10856,1,1,Node9,picture7.jpg,2,neutral,2,neutral,1,neutral,1,neutral
avke1noi9tx8z,29,3443,1,1,Node3,picture1.jpg,1,threat,1,threat,2,neutral,2,threat
avke1noi9tx8z,30,5938,1,1,Node1,picture2.jpg,1,threat,1,threat,2,threat,2,neutral
avke1noi9tx8z,31,4782,1,3,Node8,picture4.jpg,2,threat,1,neutral,1,threat,2,threat
avke1noi9tx8z,32,4556,1,1,Node10,picture3.jpg,2,threat,2,threat,1,threat,1,threat
avke1noi9tx8z,33,4265,1,2,Node8,picture4.jpg,2,threat,1,threat,2,threat,1,neutral
avke1noi9tx8z,34,4949,1,3,Node1,picture2.jpg,1,threat,2,neutral,2,threat,1,threat
avke1noi9tx8z,35,6288,1,3,Node2,picture5.jpg,1,neutral,2,threat,2,neutral,1,neutral
avke1noi9tx8z,36,3959,1,1,Node10,picture3.jpg,2,threat,2,threat,1,threat,1,threat
avke1noi9tx8z,37,5143,1,1,Node9,picture7.jpg,2,neutral,2,neutral,1,neutral,1,neutral
avke1noi9tx8z,38,3993,1,2,Node3,picture1.jpg,1,threat,2,neutral,1,threat,2,threat
avke1noi9tx8z,39,19719,1,2,Node4,picture1.jpg,1,neutral,2,threat,1,neutral,2,threat
avke1noi9tx8z,40,2827,1,3,Node3,picture1.jpg,1,threat,2,neutral,2,threat,1,threat
avke1noi9tx8z,41,2426,1,1,Node1,picture2.jpg,1,threat,1,threat,2,neutral,2,threat
avke1noi9tx8z,42,2800,1,2,Node3,picture1.jpg,1,threat,2,threat,1,threat,2,neutral
avke1noi9tx8z,43,2423,1,3,Node1,picture2.jpg,1,threat,2,threat,2,neutral,1,threat
avke1noi9tx8z,44,3672,1,1,Node4,picture1.jpg,1,neutral,1,neutral,2,threat,2,threat
avke1noi9tx8z,45,12713,1,2,Node2,picture5.jpg,1,neutral,2,neutral,1,neutral,2,threat
avke1noi9tx8z,46,3876,1,2,Node6,picture9.jpg,2,neutral,1,neutral,2,neutral,1,threat
avke1noi9tx8z,47,3279,1,3,Node10,picture3.jpg,2,threat,1,threat,1,threat,2,threat
avke1noi9tx8z,48,6632,1,1,Node2,picture5.jpg,1,neutral,1,neutral,2,neutral,2,threat
ajuvx0e4optao,1,4222,1,3,Node9,picture2.jpg,2,threat,1,neutral,1,neutral,2,threat
ajuvx0e4optao,2,6437,1,3,Node4,picture4.jpg,1,threat,2,neutral,2,threat,1,threat
ajuvx0e4optao,3,3202,1,1,Node10,picture1.jpg,2,threat,2,threat,1,neutral,1,threat
ajuvx0e4optao,4,3416,1,1,Node8,picture2.jpg,2,neutral,2,neutral,1,neutral,1,threat
ajuvx0e4optao,5,5113,1,3,Node3,picture3.jpg,1,threat,2,threat,2,threat,1,threat
ajuvx0e4optao,6,2155,1,3,Node6,picture5.jpg,2,neutral,1,threat,1,neutral,2,neutral
ajuvx0e4optao,7,3212,0,2,Node3,picture3.jpg,1,threat,1,neutral,1,threat,2,threat
ajuvx0e4optao,8,7968,1,2,Node8,picture2.jpg,2,neutral,1,threat,2,neutral,1,neutral
ajuvx0e4optao,9,4880,1,2,Node3,picture3.jpg,1,threat,2,threat,1,threat,2,threat
ajuvx0e4optao,10,6566,1,3,Node4,picture4.jpg,1,threat,2,threat,2,neutral,1,threat
ajuvx0e4optao,11,2807,1,2,Node10,picture1.jpg,2,threat,1,threat,2,threat,1,neutral
ajuvx0e4optao,12,2975,1,3,Node6,picture5.jpg,2,neutral,1,neutral,1,threat,2,neutral
ajuvx0e4optao,13,4565,1,1,Node1,picture3.jpg,1,neutral,1,neutral,2,threat,2,threat
ajuvx0e4optao,14,2932,1,1,Node3,picture3.jpg,1,threat,1,threat,2,threat,2,threat
ajuvx0e4optao,15,3529,1,3,Node1,picture3.jpg,1,neutral,2,threat,2,threat,1,neutral
ajuvx0e4optao,16,34500,1,1,Node6,picture5.jpg,2,neutral,2,neutral,1,neutral,1,threat
ajuvx0e4optao,17,3067,1,2,Node9,picture2.jpg,2,threat,1,neutral,2,threat,1,neutral
ajuvx0e4optao,18,3857,0,3,Node3,picture3.jpg,1,threat,1,neutral,2,threat,1,threat
ajuvx0e4optao,19,5409,1,1,Node6,picture5.jpg,2,neutral,2,neutral,1,threat,1,neutral
ajuvx0e4optao,20,3467,0,3,Node8,picture2.jpg,2,neutral,1,threat,2,threat,2,neutral
ajuvx0e4optao,21,10941,1,1,Node9,picture2.jpg,2,threat,2,threat,1,neutral,1,neutral
ajuvx0e4optao,22,7588,1,2,Node4,picture4.jpg,1,threat,2,neutral,1,threat,2,threat
ajuvx0e4optao,23,4397,1,1,Node2,picture1.jpg,1,neutral,1,neutral,2,threat,2,threat
ajuvx0e4optao,24,3012,1,2,Node1,picture3.jpg,1,neutral,2,threat,1,neutral,2,threat
ajuvx0e4optao,25,3535,0,1,Node2,picture1.jpg,1,neutral,1,neutral,2,neutral,1,threat
ajuvx0e4optao,26,7748,1,1,Node3,picture3.jpg,1,threat,1,threat,2,threat,2,threat
ajuvx0e4optao,27,5601,1,2,Node2,picture1.jpg,1,neutral,2,threat,1,neutral,2,threat
ajuvx0e4optao,28,2538,1,3,Node1,picture3.jpg,1,neutral,2,threat,2,threat,1,neutral
ajuvx0e4optao,29,5958,1,1,Node4,picture4.jpg,1,threat,1,threat,2,neutral,2,threat
ajuvx0e4optao,30,2629,1,2,Node1,picture3.jpg,1,neutral,2,threat,1,neutral,2,threat
ajuvx0e4optao,31,2179,1,2,Node2,picture1.jpg,1,neutral,2,threat,1,neutral,2,threat
ajuvx0e4optao,32,3712,1,3,Node3,picture3.jpg,1,threat,2,threat,2,threat,1,threat
ajuvx0e4optao,33,3374,1,2,Node6,picture5.jpg,2,neutral,1,threat,2,neutral,1,neutral
ajuvx0e4optao,34,2808,1,2,Node4,picture4.jpg,1,threat,2,threat,1,threat,2,neutral
ajuvx0e4optao,35,4777,1,3,Node9,picture2.jpg,2,threat,1,neutral,1,neutral,2,threat
ajuvx0e4optao,36,2951,1,2,Node8,picture2.jpg,2,neutral,1,neutral,2,neutral,1,threat
ajuvx0e4optao,37,2369,1,1,Node10,picture1.jpg,2,threat,2,threat,1,threat,1,neutral
ajuvx0e4optao,38,3276,1,2,Node9,picture2.jpg,2,threat,1,neutral,2,threat,1,neutral
ajuvx0e4optao,39,5776,1,3,Node8,picture2.jpg,2,neutral,1,neutral,1,threat,2,neutral
ajuvx0e4optao,40,2384,1,3,Node2,picture1.jpg,1,neutral,2,threat,2,threat,1,neutral
ajuvx0e4optao,41,6613,1,2,Node3,picture3.jpg,1,threat,2,threat,1,threat,2,threat
ajuvx0e4optao,42,4137,1,3,Node8,picture2.jpg,2,neutral,1,threat,1,neutral,2,neutral
ajuvx0e4optao,43,2482,1,1,Node2,picture1.jpg,1,neutral,1,neutral,2,threat,2,threat
ajuvx0e4optao,44,2715,1,1,Node1,picture3.jpg,1,neutral,1,neutral,2,threat,2,threat
ajuvx0e4optao,45,2208,1,3,Node2,picture1.jpg,1,neutral,2,threat,2,threat,1,neutral
ajuvx0e4optao,46,3160,1,1,Node8,picture2.jpg,2,neutral,2,neutral,1,threat,1,neutral
ajuvx0e4optao,47,5526,1,1,Node9,picture2.jpg,2,threat,2,threat,1,neutral,1,neutral
ajuvx0e4optao,48,3991,1,3,Node10,picture1.jpg,2,threat,1,threat,1,neutral,2,threat
au566wrask7z0,1,10636,1,1,Node8,picture5.jpg,2,neutral,2,neutral,1,neutral,1,threat
au566wrask7z0,2,12756,1,3,Node10,picture1.jpg,2,threat,1,threat,1,neutral,2,threat
au566wrask7z0,3,11053,1,2,Node6,picture1.jpg,2,neutral,1,neutral,2,neutral,1,threat
au566wrask7z0,4,10365,1,1,Node10,picture1.jpg,2,threat,2,threat,1,neutral,1,threat
au566wrask7z0,5,14131,1,3,Node9,picture3.jpg,2,threat,1,neutral,1,threat,2,threat
au566wrask7z0,6,12693,1,2,Node10,picture1.jpg,2,threat,1,threat,2,threat,1,neutral
au566wrask7z0,7,13811,1,3,Node9,picture3.jpg,2,threat,1,threat,1,neutral,2,threat
au566wrask7z0,8,4143,1,3,Node8,picture5.jpg,2,neutral,1,threat,1,neutral,2,neutral
au566wrask7z0,9,10576,1,2,Node1,picture4.jpg,1,neutral,2,neutral,1,neutral,2,threat
au566wrask7z0,10,3295,1,3,Node2,picture6.jpg,1,neutral,2,threat,2,threat,1,neutral
au566wrask7z0,11,2876,1,3,Node4,picture4.jpg,1,threat,2,neutral,2,neutral,1,threat
au566wrask7z0,12,9305,1,3,Node6,picture1.jpg,2,neutral,1,threat,1,neutral,2,neutral
au566wrask7z0,13,9408,0,3,Node4,picture4.jpg,1,threat,1,neutral,2,neutral,1,threat
au566wrask7z0,14,8039,0,2,Node4,picture4.jpg,1,threat,1,neutral,1,threat,2,threat
au566wrask7z0,15,3423,1,3,Node4,picture4.jpg,1,threat,2,neutral,2,neutral,1,threat
au566wrask7z0,16,17408,1,2,Node9,picture3.jpg,2,threat,1,neutral,2,threat,1,threat
au566wrask7z0,17,21633,1,1,Node3,picture2.jpg,1,threat,1,threat,2,neutral,2,threat
au566wrask7z0,18,17238,1,1,Node10,picture1.jpg,2,threat,2,threat,1,threat,1,neutral
au566wrask7z0,19,4197,1,3,Node6,picture1.jpg,2,neutral,1,neutral,1,threat,2,neutral
au566wrask7z0,20,4094,1,2,Node8,picture5.jpg,2,neutral,1,threat,2,neutral,1,neutral
au566wrask7z0,21,8093,1,1,Node6,picture1.jpg,2,neutral,2,neutral,1,neutral,1,threat
au566wrask7z0,22,3689,1,1,Node2,picture6.jpg,1,neutral,1,neutral,2,threat,2,threat
au566wrask7z0,23,4683,1,1,Node1,picture4.jpg,1,neutral,1,neutral,2,threat,2,neutral
au566wrask7z0,24,5695,1,2,Node3,picture2.jpg,1,threat,2,neutral,1,threat,2,threat
au566wrask7z0,25,5246,1,1,Node2,picture6.jpg,1,neutral,1,neutral,2,threat,2,threat
au566wrask7z0,26,7017,1,1,Node9,picture3.jpg,2,threat,2,threat,1,neutral,1,threat
au566wrask7z0,27,14279,1,1,Node1,picture4.jpg,1,neutral,1,neutral,2,neutral,2,threat
au566wrask7z0,28,3693,1,1,Node8,picture5.jpg,2,neutral,2,neutral,1,threat,1,neutral
au566wrask7z0,29,9331,1,2,Node1,picture4.jpg,1,neutral,2,threat,1,neutral,2,neutral
au566wrask7z0,30,2732,0,2,Node4,picture4.jpg,1,threat,1,neutral,1,threat,2,neutral
au566wrask7z0,31,6639,1,3,Node2,picture6.jpg,1,neutral,2,threat,2,threat,1,neutral
au566wrask7z0,32,5826,1,1,Node4,picture4.jpg,1,threat,1,threat,2,neutral,2,neutral
au566wrask7z0,33,2817,1,3,Node3,picture2.jpg,1,threat,2,threat,2,neutral,1,threat
au566wrask7z0,34,3178,1,3,Node1,picture4.jpg,1,neutral,2,neutral,2,threat,1,neutral
au566wrask7z0,35,5747,1,2,Node4,picture4.jpg,1,threat,2,neutral,1,threat,2,neutral
au566wrask7z0,36,5356,1,2,Node3,picture2.jpg,1,threat,2,threat,1,threat,2,neutral
au566wrask7z0,37,9893,1,1,Node4,picture4.jpg,1,threat,1,threat,2,neutral,2,neutral
au566wrask7z0,38,7765,1,3,Node1,picture4.jpg,1,neutral,2,threat,2,neutral,1,neutral
au566wrask7z0,39,9579,0,3,Node2,picture6.jpg,1,neutral,2,neutral,1,threat,1,neutral
au566wrask7z0,40,7570,1,1,Node3,picture2.jpg,1,threat,1,threat,2,threat,2,neutral
au566wrask7z0,41,2885,1,2,Node2,picture6.jpg,1,neutral,2,threat,1,neutral,2,threat
au566wrask7z0,42,4200,1,2,Node10,picture1.jpg,2,threat,1,neutral,2,threat,1,threat
au566wrask7z0,43,4623,1,2,Node9,picture3.jpg,2,threat,1,threat,2,threat,1,neutral
au566wrask7z0,44,3754,1,3,Node3,picture2.jpg,1,threat,2,neutral,2,threat,1,threat
au566wrask7z0,45,3857,1,2,Node4,picture4.jpg,1,threat,2,neutral,1,threat,2,neutral
au566wrask7z0,46,5246,1,2,Node2,picture6.jpg,1,neutral,2,threat,1,neutral,2,threat
au566wrask7z0,47,4882,1,1,Node9,picture3.jpg,2,threat,2,threat,1,threat,1,neutral
au566wrask7z0,48,12699,1,2,Node6,picture1.jpg,2,neutral,1,threat,2,neutral,1,neutral
a22llu5metq7cl,1,2947,1,1,Node4,picture1.jpg,1,neutral,1,neutral,2,threat,2,neutral
a22llu5metq7cl,2,3845,1,2,Node8,picture3.jpg,2,neutral,1,threat,2,neutral,1,neutral
a22llu5metq7cl,3,2930,1,1,Node2,picture10.jpg,1,neutral,1,neutral,2,neutral,2,neutral
a22llu5metq7cl,4,3577,1,1,Node1,picture4.jpg,1,threat,1,threat,2,neutral,2,neutral
a22llu5metq7cl,5,3401,1,3,Node4,picture1.jpg,1,neutral,2,threat,2,neutral,1,neutral
a22llu5metq7cl,6,3066,1,1,Node8,picture3.jpg,2,neutral,2,neutral,1,threat,1,neutral
a22llu5metq7cl,7,4354,1,2,Node6,picture4.jpg,2,neutral,1,neutral,2,neutral,1,neutral
a22llu5metq7cl,8,3470,1,3,Node8,picture3.jpg,2,neutral,1,threat,1,neutral,2,neutral
a22llu5metq7cl,9,3133,1,3,Node4,picture1.jpg,1,neutral,2,neutral,2,threat,1,neutral
a22llu5metq7cl,10,3871,1,2,Node10,picture7.jpg,2,neutral,1,threat,2,neutral,1,neutral
a22llu5metq7cl,11,3209,0,2,Node2,picture10.jpg,1,neutral,2,neutral,1,neutral,1,threat
a22llu5metq7cl,12,5081,1,1,Node6,picture4.jpg,2,neutral,2,neutral,1,neutral,1,neutral
a22llu5metq7cl,13,2843,1,3,Node10,picture7.jpg,2,neutral,1,neutral,1,threat,2,neutral
a22llu5metq7cl,14,2306,1,3,Node9,picture3.jpg,2,threat,1,threat,1,threat,2,threat
a22llu5metq7cl,15,2439,1,2,Node8,picture3.jpg,2,neutral,1,neutral,2,neutral,1,threat
a22llu5metq7cl,16,2187,1,1,Node1,picture4.jpg,1,threat,1,threat,2,neutral,2,neutral
a22llu5metq7cl,17,3207,1,2,Node2,picture10.jpg,1,neutral,2,neutral,1,neutral,2,neutral
a22llu5metq7cl,18,3255,1,2,Node3,picture1.jpg,1,threat,2,neutral,1,threat,2,threat
a22llu5metq7cl,19,3184,1,2,Node10,picture7.jpg,2,neutral,1,neutral,2,neutral,1,threat
a22llu5metq7cl,20,3002,1,2,Node6,picture4.jpg,2,neutral,1,neutral,2,neutral,1,neutral
a22llu5metq7cl,21,6174,1,1,Node9,picture3.jpg,2,threat,2,threat,1,threat,1,threat
a22llu5metq7cl,22,2100,1,3,Node6,picture4.jpg,2,neutral,1,neutral,1,neutral,2,neutral
a22llu5metq7cl,23,2645,1,1,Node10,picture7.jpg,2,neutral,2,neutral,1,threat,1,neutral
a22llu5metq7cl,24,2885,1,1,Node6,picture4.jpg,2,neutral,2,neutral,1,neutral,1,neutral
a22llu5metq7cl,25,2859,1,2,Node9,picture3.jpg,2,threat,1,threat,2,threat,1,threat
a22llu5metq7cl,26,2467,1,1,Node2,picture10.jpg,1,neutral,1,neutral,2,neutral,2,neutral
a22llu5metq7cl,27,2767,1,2,Node1,picture4.jpg,1,threat,2,neutral,1,threat,2,neutral
a22llu5metq7cl,28,4010,1,1,Node3,picture1.jpg,1,threat,1,threat,2,neutral,2,threat
a22llu5metq7cl,29,3117,1,2,Node2,picture10.jpg,1,neutral,2,neutral,1,neutral,2,neutral
a22llu5metq7cl,30,2199,1,2,Node1,picture4.jpg,1,threat,2,neutral,1,threat,2,neutral
a22llu5metq7cl,31,1890,1,3,Node2,picture10.jpg,1,neutral,2,neutral,2,neutral,1,neutral
a22llu5metq7cl,32,2545,1,2,Node9,picture3.jpg,2,threat,1,threat,2,threat,1,threat
a22llu5metq7cl,33,2515,1,3,Node6,picture4.jpg,2,neutral,1,neutral,1,neutral,2,neutral
a22llu5metq7cl,34,2521,0,2,Node10,picture7.jpg,2,neutral,2,threat,2,neutral,1,threat
a22llu5metq7cl,35,2659,1,1,Node10,picture7.jpg,2,neutral,2,neutral,1,neutral,1,threat
a22llu5metq7cl,36,2443,1,1,Node9,picture3.jpg,2,threat,2,threat,1,threat,1,threat
a22llu5metq7cl,37,2651,1,3,Node10,picture7.jpg,2,neutral,1,threat,1,neutral,2,neutral
a22llu5metq7cl,38,2756,1,3,Node9,picture3.jpg,2,threat,1,threat,1,threat,2,threat
a22llu5metq7cl,39,3174,1,3,Node1,picture4.jpg,1,threat,2,neutral,2,neutral,1,threat
a22llu5metq7cl,40,3376,1,2,Node3,picture1.jpg,1,threat,2,threat,1,threat,2,neutral
a22llu5metq7cl,41,2505,1,3,Node1,picture4.jpg,1,threat,2,neutral,2,neutral,1,threat
a22llu5metq7cl,42,6232,1,1,Node3,picture1.jpg,1,threat,1,threat,2,threat,2,neutral
a22llu5metq7cl,43,2372,1,2,Node4,picture1.jpg,1,neutral,2,neutral,1,neutral,2,threat
a22llu5metq7cl,44,3713,1,3,Node8,picture3.jpg,2,neutral,1,neutral,1,threat,2,neutral
a22llu5metq7cl,45,2185,1,3,Node2,picture10.jpg,1,neutral,2,neutral,2,neutral,1,neutral
a22llu5metq7cl,46,2234,1,2,Node4,picture1.jpg,1,neutral,2,threat,1,neutral,2,neutral
a22llu5metq7cl,47,3606,1,3,Node3,picture1.jpg,1,threat,2,neutral,2,threat,1,threat
a22llu5metq7cl,48,2295,1,1,Node4,picture1.jpg,1,neutral,1,neutral,2,neutral,2,threat
apiur4wd44bq1,1,7147,1,3,Node9,picture8.jpg,2,neutral,1,neutral,1,neutral,2,neutral
apiur4wd44bq1,2,5566,1,2,Node6,picture10.jpg,2,neutral,1,neutral,2,neutral,1,threat
apiur4wd44bq1,3,4999,1,1,Node8,picture1.jpg,2,threat,2,threat,1,threat,1,neutral
apiur4wd44bq1,4,3708,1,3,Node6,picture10.jpg,2,neutral,1,threat,1,neutral,2,neutral
apiur4wd44bq1,5,3094,1,3,Node4,picture4.jpg,1,neutral,2,threat,2,neutral,1,neutral
apiur4wd44bq1,6,5262,1,2,Node3,picture2.jpg,1,threat,2,neutral,1,threat,2,threat
apiur4wd44bq1,7,4873,1,1,Node4,picture4.jpg,1,neutral,1,neutral,2,threat,2,neutral
apiur4wd44bq1,8,8161,1,2,Node3,picture2.jpg,1,threat,2,threat,1,threat,2,neutral
apiur4wd44bq1,9,4290,1,1,Node9,picture8.jpg,2,neutral,2,neutral,1,neutral,1,neutral
apiur4wd44bq1,10,5244,1,2,Node10,picture3.jpg,2,neutral,1,threat,2,neutral,1,neutral
apiur4wd44bq1,11,3421,1,3,Node3,picture2.jpg,1,threat,2,neutral,2,threat,1,threat
apiur4wd44bq1,12,4514,1,1,Node6,picture10.jpg,2,neutral,2,neutral,1,neutral,1,threat
apiur4wd44bq1,13,4550,1,1,Node10,picture3.jpg,2,neutral,2,neutral,1,threat,1,neutral
apiur4wd44bq1,14,4501,1,2,Node9,picture8.jpg,2,neutral,1,neutral,2,neutral,1,neutral
apiur4wd44bq1,15,7529,1,1,Node10,picture3.jpg,2,neutral,2,neutral,1,neutral,1,threat
apiur4wd44bq1,16,4585,1,1,Node3,picture2.jpg,1,threat,1,threat,2,neutral,2,threat
apiur4wd44bq1,17,2614,1,2,Node8,picture1.jpg,2,threat,1,neutral,2,threat,1,threat
apiur4wd44bq1,18,4966,1,2,Node9,picture8.jpg,2,neutral,1,neutral,2,neutral,1,neutral
apiur4wd44bq1,19,2144,1,3,Node8,picture1.jpg,2,threat,1,neutral,1,threat,2,threat
apiur4wd44bq1,20,5563,1,1,Node1,picture9.jpg,1,neutral,1,neutral,2,neutral,2,neutral
apiur4wd44bq1,21,4664,1,2,Node2,picture3.jpg,1,threat,2,neutral,1,threat,2,threat
apiur4wd44bq1,22,2981,1,3,Node1,picture9.jpg,1,neutral,2,neutral,2,neutral,1,neutral
apiur4wd44bq1,23,2635,1,1,Node4,picture4.jpg,1,neutral,1,neutral,2,neutral,2,threat
apiur4wd44bq1,24,3929,1,1,Node2,picture3.jpg,1,threat,1,threat,2,threat,2,neutral
apiur4wd44bq1,25,2498,1,2,Node4,picture4.jpg,1,neutral,2,threat,1,neutral,2,neutral
apiur4wd44bq1,26,8014,1,3,Node2,picture3.jpg,1,threat,2,neutral,2,threat,1,threat
apiur4wd44bq1,27,3167,1,3,Node9,picture8.jpg,2,neutral,1,neutral,1,neutral,2,neutral
apiur4wd44bq1,28,2973,1,3,Node4,picture4.jpg,1,neutral,2,neutral,2,threat,1,neutral
apiur4wd44bq1,29,2380,1,3,Node1,picture9.jpg,1,neutral,2,neutral,2,neutral,1,neutral
apiur4wd44bq1,30,2149,1,3,Node8,picture1.jpg,2,threat,1,threat,1,neutral,2,threat
apiur4wd44bq1,31,8342,1,1,Node9,picture8.jpg,2,neutral,2,neutral,1,neutral,1,neutral
apiur4wd44bq1,32,5441,1,3,Node10,picture3.jpg,2,neutral,1,threat,1,neutral,2,neutral
apiur4wd44bq1,33,2303,1,3,Node2,picture3.jpg,1,threat,2,threat,2,neutral,1,threat
apiur4wd44bq1,34,5161,1,2,Node4,picture4.jpg,1,neutral,2,neutral,1,neutral,2,threat
apiur4wd44bq1,35,3196,1,2,Node2,picture3.jpg,1,threat,2,threat,1,threat,2,neutral
apiur4wd44bq1,36,10033,1,2,Node1,picture9.jpg,1,neutral,2,neutral,1,neutral,2,neutral
apiur4wd44bq1,37,4161,1,3,Node6,picture10.jpg,2,neutral,1,neutral,1,threat,2,neutral
apiur4wd44bq1,38,3357,1,3,Node3,picture2.jpg,1,threat,2,threat,2,neutral,1,threat
apiur4wd44bq1,39,9042,1,2,Node10,picture3.jpg,2,neutral,1,neutral,2,neutral,1,threat
apiur4wd44bq1,40,3775,1,1,Node6,picture10.jpg,2,neutral,2,neutral,1,threat,1,neutral
apiur4wd44bq1,41,6764,1,1,Node3,picture2.jpg,1,threat,1,threat,2,threat,2,neutral
apiur4wd44bq1,42,12805,1,3,Node10,picture3.jpg,2,neutral,1,neutral,1,threat,2,neutral
apiur4wd44bq1,43,8465,1,2,Node8,picture1.jpg,2,threat,1,threat,2,threat,1,neutral
apiur4wd44bq1,44,3673,1,2,Node1,picture9.jpg,1,neutral,2,neutral,1,neutral,2,neutral
apiur4wd44bq1,45,4199,1,2,Node6,picture10.jpg,2,neutral,1,threat,2,neutral,1,neutral
apiur4wd44bq1,46,5031,1,1,Node8,picture1.jpg,2,threat,2,threat,1,neutral,1,threat
apiur4wd44bq1,47,2393,1,1,Node1,picture9.jpg,1,neutral,1,neutral,2,neutral,2,neutral
apiur4wd44bq1,48,4567,1,1,Node2,picture3.jpg,1,threat,1,threat,2,neutral,2,threat
a2vo8c41jjiqy9,1,2374,1,1,Node2,picture7.jpg,1,neutral,1,neutral,2,neutral,2,threat
a2vo8c41jjiqy9,2,3196,1,3,Node4,picture3.jpg,1,threat,2,neutral,2,threat,1,threat
a2vo8c41jjiqy9,3,3386,1,1,Node1,picture2.jpg,1,neutral,1,neutral,2,neutral,2,threat
a2vo8c41jjiqy9,4,3006,1,2,Node9,picture2.jpg,2,threat,1,neutral,2,threat,1,threat
a2vo8c41jjiqy9,5,1779,1,1,Node6,picture6.jpg,2,neutral,2,neutral,1,threat,1,neutral
a2vo8c41jjiqy9,6,4001,1,1,Node3,picture4.jpg,1,threat,1,threat,2,threat,2,neutral
a2vo8c41jjiqy9,7,1993,1,2,Node8,picture9.jpg,2,neutral,1,neutral,2,neutral,1,threat
a2vo8c41jjiqy9,8,2363,0,1,Node9,picture2.jpg,2,threat,2,threat,1,threat,2,neutral
a2vo8c41jjiqy9,9,5853,1,1,Node4,picture3.jpg,1,threat,1,threat,2,threat,2,neutral
a2vo8c41jjiqy9,10,2027,1,1,Node9,picture2.jpg,2,threat,2,threat,1,threat,1,neutral
a2vo8c41jjiqy9,11,3524,1,1,Node6,picture6.jpg,2,neutral,2,neutral,1,neutral,1,threat
a2vo8c41jjiqy9,12,2544,1,2,Node9,picture2.jpg,2,threat,1,threat,2,threat,1,neutral
a2vo8c41jjiqy9,13,1774,0,2,Node1,picture2.jpg,1,neutral,2,neutral,1,neutral,1,threat
a2vo8c41jjiqy9,14,5564,1,3,Node6,picture6.jpg,2,neutral,1,threat,1,neutral,2,neutral
a2vo8c41jjiqy9,15,2716,1,1,Node2,picture7.jpg,1,neutral,1,neutral,2,threat,2,neutral
a2vo8c41jjiqy9,16,3040,1,3,Node3,picture4.jpg,1,threat,2,threat,2,neutral,1,threat
a2vo8c41jjiqy9,17,3545,1,2,Node1,picture2.jpg,1,neutral,2,neutral,1,neutral,2,threat
a2vo8c41jjiqy9,18,3256,1,2,Node6,picture6.jpg,2,neutral,1,neutral,2,neutral,1,threat
a2vo8c41jjiqy9,19,3617,1,3,Node2,picture7.jpg,1,neutral,2,threat,2,neutral,1,neutral
a2vo8c41jjiqy9,20,2557,1,2,Node8,picture9.jpg,2,neutral,1,threat,2,neutral,1,neutral
a2vo8c41jjiqy9,21,9627,1,3,Node4,picture3.jpg,1,threat,2,threat,2,neutral,1,threat
a2vo8c41jjiqy9,22,2425,1,3,Node10,picture8.jpg,2,neutral,1,neutral,1,neutral,2,neutral
a2vo8c41jjiqy9,23,3231,1,2,Node4,picture3.jpg,1,threat,2,neutral,1,threat,2,threat
a2vo8c41jjiqy9,24,3209,1,2,Node10,picture8.jpg,2,neutral,1,neutral,2,neutral,1,neutral
a2vo8c41jjiqy9,25,2245,1,2,Node6,picture6.jpg,2,neutral,1,threat,2,neutral,1,neutral
a2vo8c41jjiqy9,26,2969,1,1,Node9,picture2.jpg,2,threat,2,threat,1,neutral,1,threat
a2vo8c41jjiqy9,27,2045,1,3,Node10,picture8.jpg,2,neutral,1,neutral,1,neutral,2,neutral
a2vo8c41jjiqy9,28,4027,1,3,Node1,picture2.jpg,1,neutral,2,threat,2,neutral,1,neutral
a2vo8c41jjiqy9,29,4184,1,3,Node6,picture6.jpg,2,neutral,1,neutral,1,threat,2,neutral
a2vo8c41jjiqy9,30,3530,1,1,Node10,picture8.jpg,2,neutral,2,neutral,1,neutral,1,neutral
a2vo8c41jjiqy9,31,2358,1,2,Node4,picture3.jpg,1,threat,2,threat,1,threat,2,neutral
a2vo8c41jjiqy9,32,3709,1,3,Node3,picture4.jpg,1,threat,2,neutral,2,threat,1,threat
a2vo8c41jjiqy9,33,3842,1,2,Node2,picture7.jpg,1,neutral,2,threat,1,neutral,2,neutral
a2vo8c41jjiqy9,34,3224,1,1,Node8,picture9.jpg,2,neutral,2,neutral,1,threat,1,neutral
a2vo8c41jjiqy9,35,2547,1,2,Node3,picture4.jpg,1,threat,2,neutral,1,threat,2,threat
a2vo8c41jjiqy9,36,2941,1,2,Node1,picture2.jpg,1,neutral,2,threat,1,neutral,2,neutral
a2vo8c41jjiqy9,37,2767,1,1,Node4,picture3.jpg,1,threat,1,threat,2,neutral,2,threat
a2vo8c41jjiqy9,38,3505,1,3,Node2,picture7.jpg,1,neutral,2,neutral,2,threat,1,neutral
a2vo8c41jjiqy9,39,4526,1,3,Node8,picture9.jpg,2,neutral,1,threat,1,neutral,2,neutral
a2vo8c41jjiqy9,40,2847,1,1,Node3,picture4.jpg,1,threat,1,threat,2,neutral,2,threat
a2vo8c41jjiqy9,41,5511,1,3,Node1,picture2.jpg,1,neutral,2,neutral,2,threat,1,neutral
a2vo8c41jjiqy9,42,3983,0,2,Node2,picture7.jpg,1,neutral,1,threat,1,neutral,2,threat
a2vo8c41jjiqy9,43,5774,1,2,Node10,picture8.jpg,2,neutral,1,neutral,2,neutral,1,neutral
a2vo8c41jjiqy9,44,2662,1,3,Node9,picture2.jpg,2,threat,1,neutral,1,threat,2,threat
a2vo8c41jjiqy9,45,4709,1,1,Node10,picture8.jpg,2,neutral,2,neutral,1,neutral,1,neutral
a2vo8c41jjiqy9,46,3974,1,3,Node8,picture9.jpg,2,neutral,1,neutral,1,threat,2,neutral
a2vo8c41jjiqy9,47,2537,1,2,Node2,picture7.jpg,1,neutral,2,neutral,1,neutral,2,threat
a2vo8c41jjiqy9,48,2829,1,1,Node1,picture2.jpg,1,neutral,1,neutral,2,threat,2,neutral
a1gp2iovw7rzuo,1,31817,0,2,Node1,picture7.jpg,1,neutral,2,threat,1,neutral,1,neutral
a1gp2iovw7rzuo,2,7342,1,3,Node6,picture8.jpg,2,neutral,1,neutral,1,threat,2,neutral
a1gp2iovw7rzuo,3,11105,1,3,Node2,picture1.jpg,1,threat,2,threat,2,neutral,1,threat
a1gp2iovw7rzuo,4,12417,1,3,Node9,picture3.jpg,2,threat,1,neutral,1,neutral,2,threat
a1gp2iovw7rzuo,5,1497621,0,2,Node8,picture4.jpg,2,neutral,1,threat,2,neutral,2,threat
a1gp2iovw7rzuo,6,449190,1,1,Node4,picture4.jpg,1,threat,1,threat,2,neutral,2,threat
a1gp2iovw7rzuo,7,11031,1,2,Node3,picture3.jpg,1,neutral,2,threat,1,neutral,2,neutral
a1gp2iovw7rzuo,8,8477,1,2,Node6,picture8.jpg,2,neutral,1,threat,2,neutral,1,neutral
a1gp2iovw7rzuo,9,5288,1,2,Node10,picture2.jpg,2,threat,1,neutral,2,threat,1,threat
a1gp2iovw7rzuo,10,14702,1,1,Node9,picture3.jpg,2,threat,2,threat,1,neutral,1,neutral
a1gp2iovw7rzuo,11,16044,1,1,Node6,picture8.jpg,2,neutral,2,neutral,1,neutral,1,threat
a1gp2iovw7rzuo,12,16206,1,1,Node8,picture4.jpg,2,neutral,2,neutral,1,neutral,1,threat
a1gp2iovw7rzuo,13,11604,0,3,Node3,picture3.jpg,1,neutral,1,neutral,2,threat,1,neutral
a1gp2iovw7rzuo,14,8580,1,3,Node10,picture2.jpg,2,threat,1,threat,1,neutral,2,threat
a1gp2iovw7rzuo,15,14497,1,1,Node3,picture3.jpg,1,neutral,1,neutral,2,neutral,2,threat
a1gp2iovw7rzuo,16,15230,1,1,Node2,picture1.jpg,1,threat,1,threat,2,threat,2,neutral
a1gp2iovw7rzuo,17,7395,1,3,Node10,picture2.jpg,2,threat,1,neutral,1,threat,2,threat
a1gp2iovw7rzuo,18,5605,1,3,Node3,picture3.jpg,1,neutral,2,neutral,2,threat,1,neutral
a1gp2iovw7rzuo,19,11635,1,1,Node1,picture7.jpg,1,neutral,1,neutral,2,threat,2,neutral
a1gp2iovw7rzuo,20,10725,1,3,Node4,picture4.jpg,1,threat,2,threat,2,neutral,1,threat
a1gp2iovw7rzuo,21,7060,1,2,Node1,picture7.jpg,1,neutral,2,threat,1,neutral,2,neutral
a1gp2iovw7rzuo,22,7482,1,3,Node3,picture3.jpg,1,neutral,2,threat,2,neutral,1,neutral
a1gp2iovw7rzuo,23,8759,1,1,Node10,picture2.jpg,2,threat,2,threat,1,threat,1,neutral
a1gp2iovw7rzuo,24,14321,1,3,Node8,picture4.jpg,2,neutral,1,threat,1,neutral,2,neutral
a1gp2iovw7rzuo,25,7368,1,3,Node1,picture7.jpg,1,neutral,2,threat,2,neutral,1,neutral
a1gp2iovw7rzuo,26,4926,1,2,Node4,picture4.jpg,1,threat,2,threat,1,threat,2,neutral
a1gp2iovw7rzuo,27,8933,1,2,Node2,picture1.jpg,1,threat,2,neutral,1,threat,2,threat
a1gp2iovw7rzuo,28,20013,1,1,Node10,picture2.jpg,2,threat,2,threat,1,neutral,1,threat
a1gp2iovw7rzuo,29,11030,1,1,Node4,picture4.jpg,1,threat,1,threat,2,threat,2,neutral
a1gp2iovw7rzuo,30,5172,1,2,Node2,picture1.jpg,1,threat,2,threat,1,threat,2,neutral
a1gp2iovw7rzuo,31,2560,1,1,Node3,picture3.jpg,1,neutral,1,neutral,2,threat,2,neutral
a1gp2iovw7rzuo,32,6506,1,2,Node6,picture8.jpg,2,neutral,1,neutral,2,neutral,1,threat
a1gp2iovw7rzuo,33,7911,1,2,Node10,picture2.jpg,2,threat,1,threat,2,threat,1,neutral
a1gp2iovw7rzuo,34,19289,1,1,Node8,picture4.jpg,2,neutral,2,neutral,1,threat,1,neutral
a1gp2iovw7rzuo,35,10016,1,1,Node6,picture8.jpg,2,neutral,2,neutral,1,threat,1,neutral
a1gp2iovw7rzuo,36,10517,1,2,Node8,picture4.jpg,2,neutral,1,neutral,2,neutral,1,threat
a1gp2iovw7rzuo,37,19842,1,2,Node4,picture4.jpg,1,threat,2,neutral,1,threat,2,threat
a1gp2iovw7rzuo,38,6581,1,2,Node9,picture3.jpg,2,threat,1,neutral,2,threat,1,neutral
a1gp2iovw7rzuo,39,8161,1,1,Node1,picture7.jpg,1,neutral,1,neutral,2,neutral,2,threat
a1gp2iovw7rzuo,40,7268,1,3,Node2,picture1.jpg,1,threat,2,neutral,2,threat,1,threat
a1gp2iovw7rzuo,41,5303,1,2,Node3,picture3.jpg,1,neutral,2,neutral,1,neutral,2,threat
a1gp2iovw7rzuo,42,8492,1,3,Node6,picture8.jpg,2,neutral,1,threat,1,neutral,2,neutral
a1gp2iovw7rzuo,43,12865,1,3,Node9,picture3.jpg,2,threat,1,neutral,1,neutral,2,threat
a1gp2iovw7rzuo,44,4797,1,2,Node1,picture7.jpg,1,neutral,2,neutral,1,neutral,2,threat
a1gp2iovw7rzuo,45,6857,1,3,Node8,picture4.jpg,2,neutral,1,neutral,1,threat,2,neutral
a1gp2iovw7rzuo,46,2953,1,3,Node1,picture7.jpg,1,neutral,2,neutral,2,threat,1,neutral
a1gp2iovw7rzuo,47,4217,1,2,Node8,picture4.jpg,2,neutral,1,threat,2,neutral,1,neutral
a1gp2iovw7rzuo,48,5859,1,3,Node4,picture4.jpg,1,threat,2,neutral,2,threat,1,threat
a1msg3v72sbkvu,1,29707,1,1,Node3,picture1.jpg,1,neutral,1,neutral,2,neutral,2,threat
a1msg3v72sbkvu,2,3829,1,3,Node8,picture9.jpg,2,neutral,1,neutral,1,threat,2,neutral
a1msg3v72sbkvu,3,2294,1,3,Node4,picture3.jpg,1,threat,2,threat,2,neutral,1,threat
a1msg3v72sbkvu,4,3716,1,2,Node2,picture7.jpg,1,neutral,2,threat,1,neutral,2,neutral
a1msg3v72sbkvu,5,4866,1,2,Node10,picture1.jpg,2,threat,1,neutral,2,threat,1,threat
a1msg3v72sbkvu,6,4059,1,1,Node2,picture7.jpg,1,neutral,1,neutral,2,threat,2,neutral
a1msg3v72sbkvu,7,6428,1,3,Node10,picture1.jpg,2,threat,1,threat,1,neutral,2,threat
a1msg3v72sbkvu,8,4532,1,1,Node6,picture3.jpg,2,neutral,2,neutral,1,neutral,1,threat
a1msg3v72sbkvu,9,6790,1,3,Node2,picture7.jpg,1,neutral,2,threat,2,neutral,1,neutral
a1msg3v72sbkvu,10,10035,1,2,Node10,picture1.jpg,2,threat,1,threat,2,threat,1,neutral
a1msg3v72sbkvu,11,4003,1,2,Node9,picture2.jpg,2,threat,1,neutral,2,threat,1,threat
a1msg3v72sbkvu,12,2624,1,1,Node3,picture1.jpg,1,neutral,1,neutral,2,threat,2,neutral
a1msg3v72sbkvu,13,3754,1,1,Node8,picture9.jpg,2,neutral,2,neutral,1,threat,1,neutral
a1msg3v72sbkvu,14,5467,1,3,Node1,picture4.jpg,1,threat,2,threat,2,threat,1,threat
a1msg3v72sbkvu,15,3266,1,2,Node6,picture3.jpg,2,neutral,1,threat,2,neutral,1,neutral
a1msg3v72sbkvu,16,3827,1,2,Node1,picture4.jpg,1,threat,2,threat,1,threat,2,threat
a1msg3v72sbkvu,17,3044,1,3,Node2,picture7.jpg,1,neutral,2,neutral,2,threat,1,neutral
a1msg3v72sbkvu,18,3547,1,3,Node3,picture1.jpg,1,neutral,2,threat,2,neutral,1,neutral
a1msg3v72sbkvu,19,4125,1,3,Node8,picture9.jpg,2,neutral,1,threat,1,neutral,2,neutral
a1msg3v72sbkvu,20,3892,1,1,Node10,picture1.jpg,2,threat,2,threat,1,neutral,1,threat
a1msg3v72sbkvu,21,2618,1,1,Node9,picture2.jpg,2,threat,2,threat,1,threat,1,neutral
a1msg3v72sbkvu,22,3194,1,2,Node3,picture1.jpg,1,neutral,2,neutral,1,neutral,2,threat
a1msg3v72sbkvu,23,3914,1,2,Node8,picture9.jpg,2,neutral,1,neutral,2,neutral,1,threat
a1msg3v72sbkvu,24,2797,1,1,Node4,picture3.jpg,1,threat,1,threat,2,neutral,2,threat
a1msg3v72sbkvu,25,6342,1,1,Node10,picture1.jpg,2,threat,2,threat,1,threat,1,neutral
a1msg3v72sbkvu,26,7475,1,1,Node6,picture3.jpg,2,neutral,2,neutral,1,threat,1,neutral
a1msg3v72sbkvu,27,5205,1,3,Node9,picture2.jpg,2,threat,1,neutral,1,threat,2,threat
a1msg3v72sbkvu,28,4569,1,1,Node4,picture3.jpg,1,threat,1,threat,2,threat,2,neutral
a1msg3v72sbkvu,29,7647,1,1,Node1,picture4.jpg,1,threat,1,threat,2,threat,2,threat
a1msg3v72sbkvu,30,2356,1,3,Node4,picture3.jpg,1,threat,2,neutral,2,threat,1,threat
a1msg3v72sbkvu,31,2510,1,1,Node9,picture2.jpg,2,threat,2,threat,1,neutral,1,threat
a1msg3v72sbkvu,32,1960,1,3,Node6,picture3.jpg,2,neutral,1,neutral,1,threat,2,neutral
a1msg3v72sbkvu,33,1827,1,1,Node8,picture9.jpg,2,neutral,2,neutral,1,neutral,1,threat
a1msg3v72sbkvu,34,3200,1,2,Node3,picture1.jpg,1,neutral,2,threat,1,neutral,2,neutral
a1msg3v72sbkvu,35,2478,1,2,Node4,picture3.jpg,1,threat,2,neutral,1,threat,2,threat
a1msg3v72sbkvu,36,3000,1,2,Node9,picture2.jpg,2,threat,1,threat,2,threat,1,neutral
a1msg3v72sbkvu,37,3031,1,3,Node10,picture1.jpg,2,threat,1,neutral,1,threat,2,threat
a1msg3v72sbkvu,38,3212,1,3,Node9,picture2.jpg,2,threat,1,threat,1,neutral,2,threat
a1msg3v72sbkvu,39,3765,0,3,Node4,picture3.jpg,1,threat,1,neutral,2,neutral,1,threat
a1msg3v72sbkvu,40,9677,1,2,Node8,picture9.jpg,2,neutral,1,threat,2,neutral,1,neutral
a1msg3v72sbkvu,41,1935,1,2,Node4,picture3.jpg,1,threat,2,threat,1,threat,2,neutral
a1msg3v72sbkvu,42,3111,1,1,Node1,picture4.jpg,1,threat,1,threat,2,threat,2,threat
a1msg3v72sbkvu,43,3529,1,3,Node6,picture3.jpg,2,neutral,1,threat,1,neutral,2,neutral
a1msg3v72sbkvu,44,4143,1,2,Node1,picture4.jpg,1,threat,2,threat,1,threat,2,threat
a1msg3v72sbkvu,45,5843,1,3,Node3,picture1.jpg,1,neutral,2,neutral,2,threat,1,neutral
a1msg3v72sbkvu,46,3172,1,2,Node2,picture7.jpg,1,neutral,2,neutral,1,neutral,2,threat
a1msg3v72sbkvu,47,2227,1,3,Node1,picture4.jpg,1,threat,2,threat,2,threat,1,threat
a1msg3v72sbkvu,48,4499,1,1,Node2,picture7.jpg,1,neutral,1,neutral,2,neutral,2,threat
a12d8yonw8tywu,1,9244,1,1,Node4,picture3.jpg,1,threat,1,threat,2,threat,2,threat
a12d8yonw8tywu,2,3637,1,1,Node6,picture7.jpg,2,neutral,2,neutral,1,threat,1,neutral
a12d8yonw8tywu,3,2283,1,2,Node4,picture3.jpg,1,threat,2,threat,1,threat,2,threat
a12d8yonw8tywu,4,3095,1,1,Node3,picture4.jpg,1,threat,1,threat,2,threat,2,threat
a12d8yonw8tywu,5,2622,1,2,Node9,picture3.jpg,2,neutral,1,neutral,2,neutral,1,threat
a12d8yonw8tywu,6,2181,1,3,Node2,picture9.jpg,1,neutral,2,neutral,2,threat,1,neutral
a12d8yonw8tywu,7,2820,1,1,Node10,picture1.jpg,2,threat,2,threat,1,threat,1,neutral
a12d8yonw8tywu,8,2275,1,2,Node8,picture2.jpg,2,threat,1,neutral,2,threat,1,threat
a12d8yonw8tywu,9,1814,0,2,Node6,picture7.jpg,2,neutral,1,neutral,2,neutral,2,neutral
a12d8yonw8tywu,10,2668,1,2,Node3,picture4.jpg,1,threat,2,threat,1,threat,2,threat
a12d8yonw8tywu,11,3421,1,1,Node9,picture3.jpg,2,neutral,2,neutral,1,threat,1,neutral
a12d8yonw8tywu,12,2941,1,2,Node6,picture7.jpg,2,neutral,1,neutral,2,neutral,1,threat
a12d8yonw8tywu,13,1923,1,1,Node4,picture3.jpg,1,threat,1,threat,2,threat,2,threat
a12d8yonw8tywu,14,2465,1,2,Node2,picture9.jpg,1,neutral,2,threat,1,neutral,2,neutral
a12d8yonw8tywu,15,1822,1,2,Node4,picture3.jpg,1,threat,2,threat,1,threat,2,threat
a12d8yonw8tywu,16,1985,1,3,Node3,picture4.jpg,1,threat,2,threat,2,threat,1,threat
a12d8yonw8tywu,17,4693,1,3,Node9,picture3.jpg,2,neutral,1,threat,1,neutral,2,neutral
a12d8yonw8tywu,18,3028,1,3,Node10,picture1.jpg,2,threat,1,neutral,1,threat,2,threat
a12d8yonw8tywu,19,2870,0,2,Node6,picture7.jpg,2,neutral,2,neutral,2,neutral,1,neutral
a12d8yonw8tywu,20,2998,1,3,Node4,picture3.jpg,1,threat,2,threat,2,threat,1,threat
a12d8yonw8tywu,21,2680,1,1,Node1,picture5.jpg,1,neutral,1,neutral,2,neutral,2,neutral
a12d8yonw8tywu,22,2768,1,1,Node8,picture2.jpg,2,threat,2,threat,1,neutral,1,threat
a12d8yonw8tywu,23,2354,1,2,Node10,picture1.jpg,2,threat,1,threat,2,threat,1,neutral
a12d8yonw8tywu,24,3418,1,3,Node6,picture7.jpg,2,neutral,1,neutral,1,threat,2,neutral
a12d8yonw8tywu,25,2425,1,1,Node3,picture4.jpg,1,threat,1,threat,2,threat,2,threat
a12d8yonw8tywu,26,2897,1,1,Node2,picture9.jpg,1,neutral,1,neutral,2,neutral,2,threat
a12d8yonw8tywu,27,2012,1,1,Node9,picture3.jpg,2,neutral,2,neutral,1,neutral,1,threat
a12d8yonw8tywu,28,2321,1,3,Node8,picture2.jpg,2,threat,1,threat,1,neutral,2,threat
a12d8yonw8tywu,29,3510,1,2,Node10,picture1.jpg,2,threat,1,neutral,2,threat,1,threat
a12d8yonw8tywu,30,2110,1,2,Node1,picture5.jpg,1,neutral,2,neutral,1,neutral,2,neutral
a12d8yonw8tywu,31,4117,1,3,Node3,picture4.jpg,1,threat,2,threat,2,threat,1,threat
a12d8yonw8tywu,32,1984,1,2,Node9,picture3.jpg,2,neutral,1,threat,2,neutral,1,neutral
a12d8yonw8tywu,33,3445,1,1,Node8,picture2.jpg,2,threat,2,threat,1,threat,1,neutral
a12d8yonw8tywu,34,2513,1,2,Node1,picture5.jpg,1,neutral,2,neutral,1,neutral,2,neutral
a12d8yonw8tywu,35,3159,1,3,Node2,picture9.jpg,1,neutral,2,threat,2,neutral,1,neutral
a12d8yonw8tywu,36,3069,1,3,Node10,picture1.jpg,2,threat,1,threat,1,neutral,2,threat
a12d8yonw8tywu,37,2617,1,3,Node8,picture2.jpg,2,threat,1,neutral,1,threat,2,threat
a12d8yonw8tywu,38,2511,1,2,Node2,picture9.jpg,1,neutral,2,neutral,1,neutral,2,threat
a12d8yonw8tywu,39,2201,1,2,Node6,picture7.jpg,2,neutral,1,threat,2,neutral,1,neutral
a12d8yonw8tywu,40,2038,1,2,Node8,picture2.jpg,2,threat,1,threat,2,threat,1,neutral
a12d8yonw8tywu,41,2985,1,1,Node6,picture7.jpg,2,neutral,2,neutral,1,neutral,1,threat
a12d8yonw8tywu,42,2229,1,3,Node4,picture3.jpg,1,threat,2,threat,2,threat,1,threat
a12d8yonw8tywu,43,3191,1,3,Node6,picture7.jpg,2,neutral,1,threat,1,neutral,2,neutral
a12d8yonw8tywu,44,2740,1,2,Node3,picture4.jpg,1,threat,2,threat,1,threat,2,threat
a12d8yonw8tywu,45,2005,1,3,Node9,picture3.jpg,2,neutral,1,neutral,1,threat,2,neutral
a12d8yonw8tywu,46,3889,1,1,Node10,picture1.jpg,2,threat,2,threat,1,neutral,1,threat
a12d8yonw8tywu,47,2253,1,3,Node1,picture5.jpg,1,neutral,2,neutral,2,neutral,1,neutral
a12d8yonw8tywu,48,3309,1,1,Node2,picture9.jpg,1,neutral,1,neutral,2,threat,2,neutral
a273wocs111dh0,1,13706,1,1,Node1,picture1.jpg,1,threat,1,threat,2,threat,2,threat
a273wocs111dh0,2,4793,1,3,Node4,picture5.jpg,1,neutral,2,neutral,2,neutral,1,neutral
a273wocs111dh0,3,7331,1,1,Node1,picture1.jpg,1,threat,1,threat,2,threat,2,threat
a273wocs111dh0,4,3154,1,1,Node9,picture4.jpg,2,threat,2,threat,1,neutral,1,neutral
a273wocs111dh0,5,15653,0,1,Node10,picture10.jpg,2,neutral,2,neutral,2,neutral,1,neutral
a273wocs111dh0,6,1114,0,2,Node8,picture3.jpg,2,threat,2,neutral,2,threat,1,neutral
a273wocs111dh0,7,6953,1,1,Node4,picture5.jpg,1,neutral,1,neutral,2,neutral,2,neutral
a273wocs111dh0,8,4965,1,2,Node2,picture9.jpg,1,neutral,2,threat,1,neutral,2,neutral
a273wocs111dh0,9,3003,1,1,Node6,picture3.jpg,2,neutral,2,neutral,1,neutral,1,threat
a273wocs111dh0,10,3235,1,3,Node8,picture3.jpg,2,threat,1,neutral,1,threat,2,threat
a273wocs111dh0,11,2048,1,2,Node9,picture4.jpg,2,threat,1,neutral,2,threat,1,neutral
a273wocs111dh0,12,2664,1,3,Node8,picture3.jpg,2,threat,1,threat,1,neutral,2,threat
a273wocs111dh0,13,7476,1,2,Node10,picture10.jpg,2,neutral,1,neutral,2,neutral,1,neutral
a273wocs111dh0,14,59388,0,3,Node8,picture3.jpg,2,threat,1,threat,2,threat,2,threat
a273wocs111dh0,15,6153,0,1,Node4,picture5.jpg,1,neutral,1,neutral,1,neutral,2,threat
a273wocs111dh0,16,759,1,2,Node6,picture3.jpg,2,neutral,1,threat,2,neutral,1,neutral
a273wocs111dh0,17,23913,0,2,Node8,picture3.jpg,2,threat,2,threat,2,threat,1,threat
a273wocs111dh0,18,2160,0,1,Node4,picture5.jpg,1,neutral,1,neutral,1,threat,2,neutral
a273wocs111dh0,19,9826,0,2,Node9,picture4.jpg,2,threat,2,threat,2,threat,1,threat
a273wocs111dh0,20,3697,0,2,Node4,picture5.jpg,1,neutral,1,threat,1,neutral,2,neutral
a273wocs111dh0,21,9900,1,2,Node10,picture10.jpg,2,neutral,1,neutral,2,neutral,1,neutral
a273wocs111dh0,22,1287,1,1,Node9,picture4.jpg,2,threat,2,threat,1,neutral,1,neutral
a273wocs111dh0,23,1988,1,2,Node4,picture5.jpg,1,neutral,2,neutral,1,neutral,2,neutral
a273wocs111dh0,24,1688,1,1,Node2,picture9.jpg,1,neutral,1,neutral,2,neutral,2,threat
a273wocs111dh0,25,2090,1,2,Node8,picture3.jpg,2,threat,1,threat,2,threat,1,neutral
a273wocs111dh0,26,1304,1,3,Node10,picture10.jpg,2,neutral,1,neutral,1,neutral,2,neutral
a273wocs111dh0,27,1201,1,2,Node9,picture4.jpg,2,threat,1,neutral,2,threat,1,neutral
a273wocs111dh0,28,12762,1,1,Node10,picture10.jpg,2,neutral,2,neutral,1,neutral,1,neutral
a273wocs111dh0,29,2223,0,3,Node9,picture4.jpg,2,threat,2,threat,1,threat,2,threat
a273wocs111dh0,30,3080,1,3,Node10,picture10.jpg,2,neutral,1,neutral,1,neutral,2,neutral
a273wocs111dh0,31,5704,1,1,Node6,picture3.jpg,2,neutral,2,neutral,1,threat,1,neutral
a273wocs111dh0,32,2339,1,1,Node8,picture3.jpg,2,threat,2,threat,1,neutral,1,threat
a273wocs111dh0,33,10024,1,1,Node4,picture5.jpg,1,neutral,1,neutral,2,neutral,2,neutral
a273wocs111dh0,34,6657,0,3,Node8,picture3.jpg,2,threat,2,neutral,1,neutral,2,threat
a273wocs111dh0,35,2302,0,2,Node1,picture1.jpg,1,threat,2,threat,1,threat,1,neutral
a273wocs111dh0,36,736,0,1,Node6,picture3.jpg,2,neutral,2,neutral,1,neutral,2,neutral
a273wocs111dh0,37,3734,1,3,Node1,picture1.jpg,1,threat,2,threat,2,threat,1,threat
a273wocs111dh0,38,1899,1,1,Node10,picture10.jpg,2,neutral,2,neutral,1,neutral,1,neutral
a273wocs111dh0,39,9377,1,2,Node3,picture2.jpg,1,threat,2,threat,1,threat,2,threat
a273wocs111dh0,40,2302,1,2,Node8,picture3.jpg,2,threat,1,neutral,2,threat,1,threat
a273wocs111dh0,41,3776,1,3,Node9,picture4.jpg,2,threat,1,neutral,1,neutral,2,threat
a273wocs111dh0,42,1967,0,2,Node6,picture3.jpg,2,neutral,2,threat,2,neutral,1,neutral
a273wocs111dh0,43,2600,0,2,Node8,picture3.jpg,2,threat,2,threat,2,threat,1,threat
a273wocs111dh0,44,11296,1,2,Node3,picture2.jpg,1,threat,2,threat,1,threat,2,threat
a273wocs111dh0,45,8422,1,2,Node6,picture3.jpg,2,neutral,1,neutral,2,neutral,1,threat
a273wocs111dh0,46,3046,0,2,Node8,picture3.jpg,2,threat,1,threat,2,threat,2,threat
a273wocs111dh0,47,2863,1,2,Node1,picture1.jpg,1,threat,2,threat,1,threat,2,threat
a273wocs111dh0,48,3875,1,1,Node2,picture9.jpg,1,neutral,1,neutral,2,threat,2,neutral
a2jrmx2o50m439,1,33664,1,1,Node8,picture2.jpg,2,threat,2,threat,1,threat,1,neutral
a2jrmx2o50m439,2,3499,1,1,Node9,picture9.jpg,2,neutral,2,neutral,1,neutral,1,threat
a2jrmx2o50m439,3,5179,1,3,Node8,picture2.jpg,2,threat,1,threat,1,neutral,2,threat
a2jrmx2o50m439,4,6945,1,3,Node6,picture8.jpg,2,neutral,1,neutral,1,threat,2,neutral
a2jrmx2o50m439,5,2268,1,2,Node10,picture10.jpg,2,neutral,1,threat,2,neutral,1,threat
a2jrmx2o50m439,6,3277,1,3,Node8,picture2.jpg,2,threat,1,neutral,1,threat,2,threat
a2jrmx2o50m439,7,3625,1,1,Node4,picture1.jpg,1,threat,1,threat,2,neutral,2,neutral
a2jrmx2o50m439,8,3337,1,2,Node3,picture1.jpg,1,neutral,2,threat,1,neutral,2,neutral
a2jrmx2o50m439,9,4120,1,3,Node1,picture4.jpg,1,neutral,2,neutral,2,neutral,1,neutral
a2jrmx2o50m439,10,3103,1,1,Node2,picture4.jpg,1,threat,1,threat,2,neutral,2,threat
a2jrmx2o50m439,11,6218,1,1,Node9,picture9.jpg,2,neutral,2,neutral,1,threat,1,neutral
a2jrmx2o50m439,12,7322,1,1,Node6,picture8.jpg,2,neutral,2,neutral,1,threat,1,neutral
a2jrmx2o50m439,13,4801,1,1,Node8,picture2.jpg,2,threat,2,threat,1,neutral,1,threat
a2jrmx2o50m439,14,4636,1,3,Node9,picture9.jpg,2,neutral,1,neutral,1,threat,2,neutral
a2jrmx2o50m439,15,2909,1,1,Node3,picture1.jpg,1,neutral,1,neutral,2,neutral,2,threat
a2jrmx2o50m439,16,5293,1,3,Node10,picture10.jpg,2,neutral,1,threat,1,threat,2,neutral
a2jrmx2o50m439,17,2840,1,2,Node6,picture8.jpg,2,neutral,1,neutral,2,neutral,1,threat
a2jrmx2o50m439,18,3170,1,3,Node10,picture10.jpg,2,neutral,1,threat,1,threat,2,neutral
a2jrmx2o50m439,19,3148,1,3,Node9,picture9.jpg,2,neutral,1,threat,1,neutral,2,neutral
a2jrmx2o50m439,20,7754,1,3,Node3,picture1.jpg,1,neutral,2,threat,2,neutral,1,neutral
a2jrmx2o50m439,21,7340,1,1,Node1,picture4.jpg,1,neutral,1,neutral,2,neutral,2,neutral
a2jrmx2o50m439,22,9018,1,1,Node10,picture10.jpg,2,neutral,2,neutral,1,threat,1,threat
a2jrmx2o50m439,23,4028,1,3,Node6,picture8.jpg,2,neutral,1,threat,1,neutral,2,neutral
a2jrmx2o50m439,24,2994,1,2,Node8,picture2.jpg,2,threat,1,neutral,2,threat,1,threat
a2jrmx2o50m439,25,5429,1,2,Node4,picture1.jpg,1,threat,2,neutral,1,threat,2,neutral
a2jrmx2o50m439,26,13077,1,3,Node1,picture4.jpg,1,neutral,2,neutral,2,neutral,1,neutral
a2jrmx2o50m439,27,4703,1,1,Node10,picture10.jpg,2,neutral,2,neutral,1,threat,1,threat
a2jrmx2o50m439,28,4747,1,2,Node6,picture8.jpg,2,neutral,1,threat,2,neutral,1,neutral
a2jrmx2o50m439,29,8217,1,2,Node4,picture1.jpg,1,threat,2,neutral,1,threat,2,neutral
a2jrmx2o50m439,30,7360,1,3,Node2,picture4.jpg,1,threat,2,neutral,2,threat,1,threat
a2jrmx2o50m439,31,4474,1,2,Node9,picture9.jpg,2,neutral,1,threat,2,neutral,1,neutral
a2jrmx2o50m439,32,11082,1,3,Node2,picture4.jpg,1,threat,2,threat,2,neutral,1,threat
a2jrmx2o50m439,33,3941,1,1,Node3,picture1.jpg,1,neutral,1,neutral,2,threat,2,neutral
a2jrmx2o50m439,34,4462,1,1,Node1,picture4.jpg,1,neutral,1,neutral,2,neutral,2,neutral
a2jrmx2o50m439,35,54298,1,1,Node4,picture1.jpg,1,threat,1,threat,2,neutral,2,neutral
a2jrmx2o50m439,36,3970,1,2,Node3,picture1.jpg,1,neutral,2,neutral,1,neutral,2,threat
a2jrmx2o50m439,37,3394,1,3,Node4,picture1.jpg,1,threat,2,neutral,2,neutral,1,threat
a2jrmx2o50m439,38,12005,1,1,Node6,picture8.jpg,2,neutral,2,neutral,1,neutral,1,threat
a2jrmx2o50m439,39,4984,1,3,Node3,picture1.jpg,1,neutral,2,neutral,2,threat,1,neutral
a2jrmx2o50m439,40,2730,1,2,Node10,picture10.jpg,2,neutral,1,threat,2,neutral,1,threat
a2jrmx2o50m439,41,3562,1,2,Node8,picture2.jpg,2,threat,1,threat,2,threat,1,neutral
a2jrmx2o50m439,42,5317,1,2,Node1,picture4.jpg,1,neutral,2,neutral,1,neutral,2,neutral
a2jrmx2o50m439,43,7372,1,2,Node2,picture4.jpg,1,threat,2,neutral,1,threat,2,threat
a2jrmx2o50m439,44,3360,1,2,Node9,picture9.jpg,2,neutral,1,neutral,2,neutral,1,threat
a2jrmx2o50m439,45,13099,1,1,Node2,picture4.jpg,1,threat,1,threat,2,threat,2,neutral
a2jrmx2o50m439,46,3328,1,2,Node1,picture4.jpg,1,neutral,2,neutral,1,neutral,2,neutral
a2jrmx2o50m439,47,2251,1,2,Node2,picture4.jpg,1,threat,2,threat,1,threat,2,neutral
a2jrmx2o50m439,48,9889,1,3,Node4,picture1.jpg,1,threat,2,neutral,2,neutral,1,threat
a2z58pti5rfdkk,1,6049,1,2,Node3,picture3.jpg,1,threat,2,threat,1,threat,2,neutral
a2z58pti5rfdkk,2,3056,1,2,Node10,picture4.jpg,2,threat,1,neutral,2,threat,1,neutral
a2z58pti5rfdkk,3,2841,1,1,Node6,picture1.jpg,2,neutral,2,neutral,1,neutral,1,neutral
a2z58pti5rfdkk,4,2824,1,1,Node10,picture4.jpg,2,threat,2,threat,1,neutral,1,neutral
a2z58pti5rfdkk,5,4113,1,2,Node9,picture2.jpg,2,threat,1,neutral,2,threat,1,threat
a2z58pti5rfdkk,6,2913,1,1,Node1,picture1.jpg,1,threat,1,threat,2,neutral,2,neutral
a2z58pti5rfdkk,7,4565,1,2,Node4,picture10.jpg,1,neutral,2,neutral,1,neutral,2,threat
a2z58pti5rfdkk,8,2193,1,1,Node2,picture9.jpg,1,neutral,1,neutral,2,threat,2,threat
a2z58pti5rfdkk,9,4442,1,1,Node4,picture10.jpg,1,neutral,1,neutral,2,neutral,2,threat
a2z58pti5rfdkk,10,2194,1,2,Node3,picture3.jpg,1,threat,2,neutral,1,threat,2,threat
a2z58pti5rfdkk,11,4033,1,3,Node1,picture1.jpg,1,threat,2,neutral,2,neutral,1,threat
a2z58pti5rfdkk,12,2141,1,3,Node10,picture4.jpg,2,threat,1,neutral,1,neutral,2,threat
a2z58pti5rfdkk,13,2362,1,3,Node4,picture10.jpg,1,neutral,2,threat,2,neutral,1,neutral
a2z58pti5rfdkk,14,2914,1,1,Node3,picture3.jpg,1,threat,1,threat,2,threat,2,neutral
a2z58pti5rfdkk,15,2882,1,1,Node9,picture2.jpg,2,threat,2,threat,1,threat,1,neutral
a2z58pti5rfdkk,16,2562,1,3,Node3,picture3.jpg,1,threat,2,threat,2,neutral,1,threat
a2z58pti5rfdkk,17,2208,1,3,Node10,picture4.jpg,2,threat,1,neutral,1,neutral,2,threat
a2z58pti5rfdkk,18,4692,1,2,Node1,picture1.jpg,1,threat,2,neutral,1,threat,2,neutral
a2z58pti5rfdkk,19,6583,1,3,Node2,picture9.jpg,1,neutral,2,threat,2,threat,1,neutral
a2z58pti5rfdkk,20,2728,1,2,Node4,picture10.jpg,1,neutral,2,threat,1,neutral,2,neutral
a2z58pti5rfdkk,21,2817,1,3,Node1,picture1.jpg,1,threat,2,neutral,2,neutral,1,threat
a2z58pti5rfdkk,22,3155,1,1,Node2,picture9.jpg,1,neutral,1,neutral,2,threat,2,threat
a2z58pti5rfdkk,23,5611,1,1,Node8,picture8.jpg,2,neutral,2,neutral,1,neutral,1,threat
a2z58pti5rfdkk,24,2419,1,2,Node6,picture1.jpg,2,neutral,1,neutral,2,neutral,1,neutral
a2z58pti5rfdkk,25,2852,1,2,Node8,picture8.jpg,2,neutral,1,neutral,2,neutral,1,threat
a2z58pti5rfdkk,26,3548,1,2,Node2,picture9.jpg,1,neutral,2,threat,1,neutral,2,threat
a2z58pti5rfdkk,27,1966,1,2,Node9,picture2.jpg,2,threat,1,threat,2,threat,1,neutral
a2z58pti5rfdkk,28,1629,1,2,Node6,picture1.jpg,2,neutral,1,neutral,2,neutral,1,neutral
a2z58pti5rfdkk,29,1460,1,2,Node10,picture4.jpg,2,threat,1,neutral,2,threat,1,neutral
a2z58pti5rfdkk,30,1681,1,3,Node6,picture1.jpg,2,neutral,1,neutral,1,neutral,2,neutral
a2z58pti5rfdkk,31,1368,1,2,Node8,picture8.jpg,2,neutral,1,threat,2,neutral,1,neutral
a2z58pti5rfdkk,32,1625,1,3,Node9,picture2.jpg,2,threat,1,neutral,1,threat,2,threat
a2z58pti5rfdkk,33,2123,1,3,Node6,picture1.jpg,2,neutral,1,neutral,1,neutral,2,neutral
a2z58pti5rfdkk,34,2799,0,2,Node10,picture4.jpg,2,threat,2,threat,2,threat,1,neutral
a2z58pti5rfdkk,35,5797,1,3,Node9,picture2.jpg,2,threat,1,threat,1,neutral,2,threat
a2z58pti5rfdkk,36,1941,1,3,Node8,picture8.jpg,2,neutral,1,neutral,1,threat,2,neutral
a2z58pti5rfdkk,37,2901,1,2,Node2,picture9.jpg,1,neutral,2,threat,1,neutral,2,threat
a2z58pti5rfdkk,38,2990,1,1,Node4,picture10.jpg,1,neutral,1,neutral,2,threat,2,neutral
a2z58pti5rfdkk,39,2683,1,1,Node3,picture3.jpg,1,threat,1,threat,2,neutral,2,threat
a2z58pti5rfdkk,40,2829,1,1,Node9,picture2.jpg,2,threat,2,threat,1,neutral,1,threat
a2z58pti5rfdkk,41,3114,1,1,Node10,picture4.jpg,2,threat,2,threat,1,neutral,1,neutral
a2z58pti5rfdkk,42,4411,1,3,Node8,picture8.jpg,2,neutral,1,threat,1,neutral,2,neutral
a2z58pti5rfdkk,43,4585,1,3,Node4,picture10.jpg,1,neutral,2,neutral,2,threat,1,neutral
a2z58pti5rfdkk,44,3237,1,1,Node1,picture1.jpg,1,threat,1,threat,2,neutral,2,neutral
a2z58pti5rfdkk,45,1665,1,3,Node3,picture3.jpg,1,threat,2,neutral,2,threat,1,threat
a2z58pti5rfdkk,46,5092,1,2,Node1,picture1.jpg,1,threat,2,neutral,1,threat,2,neutral
a2z58pti5rfdkk,47,2866,1,1,Node6,picture1.jpg,2,neutral,2,neutral,1,neutral,1,neutral
a2z58pti5rfdkk,48,4519,1,1,Node8,picture8.jpg,2,neutral,2,neutral,1,threat,1,neutral
az8aol78l8c84,1,8014,1,2,Node8,picture3.jpg,2,threat,1,threat,2,threat,1,threat
az8aol78l8c84,2,4065,1,3,Node10,picture4.jpg,2,threat,1,threat,1,neutral,2,threat
az8aol78l8c84,3,4376,1,2,Node6,picture1.jpg,2,neutral,1,neutral,2,neutral,1,threat
az8aol78l8c84,4,3066,0,2,Node4,picture2.jpg,1,threat,2,neutral,1,threat,1,neutral
az8aol78l8c84,5,2999,0,1,Node10,picture4.jpg,2,threat,2,threat,2,neutral,1,threat
az8aol78l8c84,6,2278,0,2,Node10,picture4.jpg,2,threat,1,neutral,2,threat,2,neutral
az8aol78l8c84,7,6456,1,1,Node9,picture2.jpg,2,neutral,2,neutral,1,neutral,1,threat
az8aol78l8c84,8,3587,1,3,Node3,picture5.jpg,1,neutral,2,neutral,2,threat,1,neutral
az8aol78l8c84,9,4605,1,1,Node1,picture1.jpg,1,threat,1,threat,2,neutral,2,threat
az8aol78l8c84,10,3826,1,1,Node4,picture2.jpg,1,threat,1,threat,2,threat,2,neutral
az8aol78l8c84,11,3566,1,2,Node3,picture5.jpg,1,neutral,2,threat,1,neutral,2,neutral
az8aol78l8c84,12,3954,1,3,Node2,picture6.jpg,1,neutral,2,threat,2,neutral,1,neutral
az8aol78l8c84,13,4541,1,2,Node3,picture5.jpg,1,neutral,2,neutral,1,neutral,2,threat
az8aol78l8c84,14,3631,1,2,Node9,picture2.jpg,2,neutral,1,threat,2,neutral,1,neutral
az8aol78l8c84,15,4676,1,2,Node2,picture6.jpg,1,neutral,2,neutral,1,neutral,2,threat
az8aol78l8c84,16,3355,1,3,Node10,picture4.jpg,2,threat,1,neutral,1,threat,2,threat
az8aol78l8c84,17,4429,1,3,Node4,picture2.jpg,1,threat,2,threat,2,neutral,1,threat
az8aol78l8c84,18,3376,1,3,Node6,picture1.jpg,2,neutral,1,neutral,1,threat,2,neutral
az8aol78l8c84,19,4209,0,1,Node4,picture2.jpg,1,threat,1,threat,1,neutral,2,neutral
az8aol78l8c84,20,4133,1,1,Node10,picture4.jpg,2,threat,2,threat,1,threat,1,neutral
az8aol78l8c84,21,3317,1,2,Node9,picture2.jpg,2,neutral,1,neutral,2,neutral,1,threat
az8aol78l8c84,22,2397,1,3,Node2,picture6.jpg,1,neutral,2,neutral,2,threat,1,neutral
az8aol78l8c84,23,2909,0,1,Node10,picture4.jpg,2,threat,2,threat,2,neutral,1,neutral
az8aol78l8c84,24,3792,1,1,Node8,picture3.jpg,2,threat,2,threat,1,threat,1,threat
az8aol78l8c84,25,3749,1,1,Node1,picture1.jpg,1,threat,1,threat,2,threat,2,neutral
az8aol78l8c84,26,2351,1,2,Node4,picture2.jpg,1,threat,2,threat,1,threat,2,neutral
az8aol78l8c84,27,3883,1,2,Node6,picture1.jpg,2,neutral,1,threat,2,neutral,1,neutral
az8aol78l8c84,28,4701,1,2,Node4,picture2.jpg,1,threat,2,neutral,1,threat,2,threat
az8aol78l8c84,29,3073,1,3,Node6,picture1.jpg,2,neutral,1,threat,1,neutral,2,neutral
az8aol78l8c84,30,2549,1,2,Node8,picture3.jpg,2,threat,1,threat,2,threat,1,threat
az8aol78l8c84,31,3998,1,1,Node3,picture5.jpg,1,neutral,1,neutral,2,neutral,2,threat
az8aol78l8c84,32,2265,1,2,Node2,picture6.jpg,1,neutral,2,threat,1,neutral,2,neutral
az8aol78l8c84,33,5210,0,2,Node3,picture5.jpg,1,neutral,2,neutral,1,neutral,1,threat
az8aol78l8c84,34,4528,1,3,Node4,picture2.jpg,1,threat,2,neutral,2,threat,1,threat
az8aol78l8c84,35,4288,1,1,Node6,picture1.jpg,2,neutral,2,neutral,1,threat,1,neutral
az8aol78l8c84,36,3989,1,1,Node10,picture4.jpg,2,threat,2,threat,1,neutral,1,threat
az8aol78l8c84,37,2041,1,3,Node8,picture3.jpg,2,threat,1,threat,1,threat,2,threat
az8aol78l8c84,38,4763,1,3,Node9,picture2.jpg,2,neutral,1,neutral,1,threat,2,neutral
az8aol78l8c84,39,2796,1,1,Node8,picture3.jpg,2,threat,2,threat,1,threat,1,threat
az8aol78l8c84,40,2696,0,2,Node10,picture4.jpg,2,threat,2,neutral,2,threat,1,threat
az8aol78l8c84,41,3484,1,1,Node4,picture2.jpg,1,threat,1,threat,2,neutral,2,threat
az8aol78l8c84,42,4547,0,1,Node10,picture4.jpg,2,threat,2,threat,1,threat,2,neutral
az8aol78l8c84,43,5412,1,2,Node10,picture4.jpg,2,threat,1,threat,2,threat,1,neutral
az8aol78l8c84,44,1828,1,3,Node8,picture3.jpg,2,threat,1,threat,1,threat,2,threat
az8aol78l8c84,45,3625,1,2,Node10,picture4.jpg,2,threat,1,neutral,2,threat,1,threat
az8aol78l8c84,46,2085,1,1,Node2,picture6.jpg,1,neutral,1,neutral,2,threat,2,neutral
az8aol78l8c84,47,3022,1,2,Node1,picture1.jpg,1,threat,2,neutral,1,threat,2,threat
az8aol78l8c84,48,2476,1,1,Node2,picture6.jpg,1,neutral,1,neutral,2,neutral,2,threat
a36fx03tepqjzp,1,16146,1,2,Node6,picture6.jpg,2,neutral,1,threat,2,neutral,1,neutral
a36fx03tepqjzp,2,16159,1,2,Node10,picture2.jpg,2,neutral,1,threat,2,neutral,1,neutral
a36fx03tepqjzp,3,6803,1,3,Node9,picture1.jpg,2,threat,1,neutral,1,threat,2,threat
a36fx03tepqjzp,4,5271,1,3,Node4,picture3.jpg,1,threat,2,neutral,2,neutral,1,threat
a36fx03tepqjzp,5,5317,0,3,Node2,picture3.jpg,1,neutral,2,neutral,1,threat,1,neutral
a36fx03tepqjzp,6,4314,1,2,Node9,picture1.jpg,2,threat,1,neutral,2,threat,1,threat
a36fx03tepqjzp,7,2317,1,2,Node6,picture6.jpg,2,neutral,1,neutral,2,neutral,1,threat
a36fx03tepqjzp,8,6153,1,2,Node1,picture4.jpg,1,neutral,2,neutral,1,neutral,2,threat
a36fx03tepqjzp,9,2228,1,2,Node10,picture2.jpg,2,neutral,1,neutral,2,neutral,1,threat
a36fx03tepqjzp,10,4307,1,1,Node8,picture5.jpg,2,neutral,2,neutral,1,neutral,1,neutral
a36fx03tepqjzp,11,3780,1,1,Node3,picture4.jpg,1,threat,1,threat,2,neutral,2,neutral
a36fx03tepqjzp,12,8170,1,1,Node4,picture3.jpg,1,threat,1,threat,2,neutral,2,neutral
a36fx03tepqjzp,13,2353,1,2,Node3,picture4.jpg,1,threat,2,neutral,1,threat,2,neutral
a36fx03tepqjzp,14,2404,0,2,Node10,picture2.jpg,2,neutral,1,neutral,2,neutral,2,threat
a36fx03tepqjzp,15,3522,1,2,Node4,picture3.jpg,1,threat,2,neutral,1,threat,2,neutral
a36fx03tepqjzp,16,2150,1,2,Node8,picture5.jpg,2,neutral,1,neutral,2,neutral,1,neutral
a36fx03tepqjzp,17,2190,1,2,Node1,picture4.jpg,1,neutral,2,threat,1,neutral,2,neutral
a36fx03tepqjzp,18,3686,1,1,Node10,picture2.jpg,2,neutral,2,neutral,1,neutral,1,threat
a36fx03tepqjzp,19,3732,1,1,Node9,picture1.jpg,2,threat,2,threat,1,threat,1,neutral
a36fx03tepqjzp,20,3298,1,1,Node4,picture3.jpg,1,threat,1,threat,2,neutral,2,neutral
a36fx03tepqjzp,21,3348,1,1,Node9,picture1.jpg,2,threat,2,threat,1,neutral,1,threat
a36fx03tepqjzp,22,2049,1,3,Node10,picture2.jpg,2,neutral,1,neutral,1,threat,2,neutral
a36fx03tepqjzp,23,2106,0,3,Node1,picture4.jpg,1,neutral,2,neutral,1,threat,1,neutral
a36fx03tepqjzp,24,2987,1,2,Node9,picture1.jpg,2,threat,1,threat,2,threat,1,neutral
a36fx03tepqjzp,25,3018,0,2,Node10,picture2.jpg,2,neutral,2,neutral,2,neutral,1,threat
a36fx03tepqjzp,26,2292,1,1,Node2,picture3.jpg,1,neutral,1,neutral,2,threat,2,neutral
a36fx03tepqjzp,27,2335,0,1,Node10,picture2.jpg,2,neutral,2,neutral,1,threat,2,neutral
a36fx03tepqjzp,28,1993,1,2,Node2,picture3.jpg,1,neutral,2,threat,1,neutral,2,neutral
a36fx03tepqjzp,29,1956,1,3,Node1,picture4.jpg,1,neutral,2,neutral,2,threat,1,neutral
a36fx03tepqjzp,30,1963,0,3,Node6,picture6.jpg,2,neutral,1,threat,2,neutral,2,neutral
a36fx03tepqjzp,31,2979,1,3,Node8,picture5.jpg,2,neutral,1,neutral,1,neutral,2,neutral
a36fx03tepqjzp,32,3006,1,3,Node9,picture1.jpg,2,threat,1,threat,1,neutral,2,threat
a36fx03tepqjzp,33,2466,1,1,Node6,picture6.jpg,2,neutral,2,neutral,1,neutral,1,threat
